word,colour,congruent,corrAns,trials.thisRepN,trials.thisTrialN,trials.thisN,trials.thisIndex,instruText.started,key_resp_2.started,target.started,response.started,response.keys,response.corr,response.rt,text.started,session,participant,date,expName,psychopyVersion,frameRate,
XXXXXX,green,2.0,s,0,0,0,21,21.40414768899791,21.40414768899791,35.241159561999666,35.241159561999666,s,1,1.0793753630023275,,001,DairaChavez2,2022-11-03_16h09.34.898,StroopTask,2022.2.4,59.835516950734316,
XXXXXX,blue,2.0,f,0,1,1,23,,,36.845303701000375,36.845303701000375,f,1,0.8142361620048177,,001,DairaChavez2,2022-11-03_16h09.34.898,StroopTask,2022.2.4,59.835516950734316,
XXX,blue,2.0,f,0,2,2,11,,,38.165611999997054,38.165611999997054,f,1,0.7139001390023623,,001,DairaChavez2,2022-11-03_16h09.34.898,StroopTask,2022.2.4,59.835516950734316,
azul,blue,1.0,f,0,3,3,3,,,39.385459531997185,39.385459531997185,f,1,0.8043708630029869,,001,DairaChavez2,2022-11-03_16h09.34.898,StroopTask,2022.2.4,59.835516950734316,
XXX,green,2.0,s,0,4,4,9,,,40.706052001998614,40.706052001998614,s,1,0.8787542220015894,,001,DairaChavez2,2022-11-03_16h09.34.898,StroopTask,2022.2.4,59.835516950734316,
rojo,red,1.0,a,0,5,5,0,,,42.091993984999135,42.091993984999135,a,1,0.6657327310022083,,001,DairaChavez2,2022-11-03_16h09.34.898,StroopTask,2022.2.4,59.835516950734316,
XXXXX,yellow,2.0,d,0,6,6,18,,,43.26264078999884,43.26264078999884,d,1,0.8371537950006314,,001,DairaChavez2,2022-11-03_16h09.34.898,StroopTask,2022.2.4,59.835516950734316,
XXXX,yellow,2.0,d,0,7,7,14,,,44.63269532399863,44.63269532399863,d,1,0.6143676130013773,,001,DairaChavez2,2022-11-03_16h09.34.898,StroopTask,2022.2.4,59.835516950734316,
rojo,green,0.0,s,0,8,8,4,,,45.75257700799921,45.75257700799921,s,1,0.7926185940050345,,001,DairaChavez2,2022-11-03_16h09.34.898,StroopTask,2022.2.4,59.835516950734316,
amarillo,yellow,1.0,d,0,9,9,2,,,47.07189514199854,47.07189514199854,d,1,1.2811160680030298,,001,DairaChavez2,2022-11-03_16h09.34.898,StroopTask,2022.2.4,59.835516950734316,
XXXXX,green,2.0,s,0,10,10,17,,,48.86091420199955,48.86091420199955,s,1,0.8599576910055475,,001,DairaChavez2,2022-11-03_16h09.34.898,StroopTask,2022.2.4,59.835516950734316,
XXX,red,2.0,a,0,11,11,8,,,50.23118055099985,50.23118055099985,a,1,0.8864350390031177,,001,DairaChavez2,2022-11-03_16h09.34.898,StroopTask,2022.2.4,59.835516950734316,
azul,blue,0.0,f,0,12,12,7,,,51.63488146799864,51.63488146799864,f,1,0.7216540780027572,,001,DairaChavez2,2022-11-03_16h09.34.898,StroopTask,2022.2.4,59.835516950734316,
XXXX,green,2.0,s,0,13,13,13,,,52.871612728999025,52.871612728999025,s,1,0.8173042300004454,,001,DairaChavez2,2022-11-03_16h09.34.898,StroopTask,2022.2.4,59.835516950734316,
amarillo,red,0.0,a,0,14,14,6,,,54.20862475499962,54.20862475499962,a,1,0.7624263460020302,,001,DairaChavez2,2022-11-03_16h09.34.898,StroopTask,2022.2.4,59.835516950734316,
verde,green,1.0,s,0,15,15,1,,,55.47841009900003,55.47841009900003,s,1,0.9007990920035809,,001,DairaChavez2,2022-11-03_16h09.34.898,StroopTask,2022.2.4,59.835516950734316,
XXXX,red,2.0,a,0,16,16,12,,,56.88219988399942,56.88219988399942,a,1,0.7788916150020668,,001,DairaChavez2,2022-11-03_16h09.34.898,StroopTask,2022.2.4,59.835516950734316,
XXXXXX,red,2.0,a,0,17,17,20,,,58.169000423997204,58.169000423997204,a,1,0.6690462070037029,,001,DairaChavez2,2022-11-03_16h09.34.898,StroopTask,2022.2.4,59.835516950734316,
XXXX,blue,2.0,f,0,18,18,15,,,59.3553903289976,59.3553903289976,f,1,0.7484137920000649,,001,DairaChavez2,2022-11-03_16h09.34.898,StroopTask,2022.2.4,59.835516950734316,
XXX,yellow,2.0,d,0,19,19,10,,,60.62565603599796,60.62565603599796,d,1,0.7619124570010172,,001,DairaChavez2,2022-11-03_16h09.34.898,StroopTask,2022.2.4,59.835516950734316,
XXXXXX,yellow,2.0,d,0,20,20,22,,,61.9116500889977,61.9116500889977,d,1,0.7327972040002351,,001,DairaChavez2,2022-11-03_16h09.34.898,StroopTask,2022.2.4,59.835516950734316,
XXXXX,blue,2.0,f,0,21,21,19,,,63.14905120399999,63.14905120399999,f,1,0.7366765150036372,,001,DairaChavez2,2022-11-03_16h09.34.898,StroopTask,2022.2.4,59.835516950734316,
XXXXX,red,2.0,a,0,22,22,16,,,64.40299246299764,64.40299246299764,a,1,0.6109804790030466,,001,DairaChavez2,2022-11-03_16h09.34.898,StroopTask,2022.2.4,59.835516950734316,
verde,yellow,0.0,d,0,23,23,5,,,65.52190814499772,65.52190814499772,d,1,0.7783541430035257,,001,DairaChavez2,2022-11-03_16h09.34.898,StroopTask,2022.2.4,59.835516950734316,
XXXX,green,2.0,s,1,0,24,13,,,66.80860895099977,66.80860895099977,s,1,0.8859956380038057,,001,DairaChavez2,2022-11-03_16h09.34.898,StroopTask,2022.2.4,59.835516950734316,
XXXX,yellow,2.0,d,1,1,25,14,,,68.21239548099766,68.21239548099766,d,1,0.6369256899997708,,001,DairaChavez2,2022-11-03_16h09.34.898,StroopTask,2022.2.4,59.835516950734316,
rojo,red,1.0,a,1,2,26,0,,,69.36563214099806,69.36563214099806,a,1,0.6330882520014711,,001,DairaChavez2,2022-11-03_16h09.34.898,StroopTask,2022.2.4,59.835516950734316,
XXXXX,yellow,2.0,d,1,3,27,18,,,70.5187206369992,70.5187206369992,d,1,0.6752917430021625,,001,DairaChavez2,2022-11-03_16h09.34.898,StroopTask,2022.2.4,59.835516950734316,
XXXXXX,blue,2.0,f,1,4,28,23,,,71.72175888699712,71.72175888699712,f,1,0.69971207600247,,001,DairaChavez2,2022-11-03_16h09.34.898,StroopTask,2022.2.4,59.835516950734316,
verde,green,1.0,s,1,5,29,1,,,72.94168778200037,72.94168778200037,s,1,0.7211220080025669,,001,DairaChavez2,2022-11-03_16h09.34.898,StroopTask,2022.2.4,59.835516950734316,
XXX,blue,2.0,f,1,6,30,11,,,74.17836352599988,74.17836352599988,f,1,0.7242927570005122,,001,DairaChavez2,2022-11-03_16h09.34.898,StroopTask,2022.2.4,59.835516950734316,
XXXXX,red,2.0,a,1,7,31,16,,,75.43190089199925,75.43190089199925,a,1,0.6288631900024484,,001,DairaChavez2,2022-11-03_16h09.34.898,StroopTask,2022.2.4,59.835516950734316,
XXXXXX,green,2.0,s,1,8,32,21,,,76.56804322199969,76.56804322199969,s,1,0.6879890220043308,,001,DairaChavez2,2022-11-03_16h09.34.898,StroopTask,2022.2.4,59.835516950734316,
XXXX,red,2.0,a,1,9,33,12,,,77.77153520699721,77.77153520699721,a,1,0.8358247800024401,,001,DairaChavez2,2022-11-03_16h09.34.898,StroopTask,2022.2.4,59.835516950734316,
XXX,yellow,2.0,d,1,10,34,10,,,79.12493996899866,79.12493996899866,d,1,0.5652941850021307,,001,DairaChavez2,2022-11-03_16h09.34.898,StroopTask,2022.2.4,59.835516950734316,
XXXXX,green,2.0,s,1,11,35,17,,,80.1944710759999,80.1944710759999,s,1,0.7621280390012544,,001,DairaChavez2,2022-11-03_16h09.34.898,StroopTask,2022.2.4,59.835516950734316,
XXXXXX,yellow,2.0,d,1,12,36,22,,,81.48109269499764,81.48109269499764,d,1,0.6576876010039996,,001,DairaChavez2,2022-11-03_16h09.34.898,StroopTask,2022.2.4,59.835516950734316,
XXXXX,blue,2.0,f,1,13,37,19,,,82.65113340300013,82.65113340300013,f,1,0.6314668860031816,,001,DairaChavez2,2022-11-03_16h09.34.898,StroopTask,2022.2.4,59.835516950734316,
rojo,green,0.0,s,1,14,38,4,,,83.80399899099939,83.80399899099939,s,1,0.8873422720025701,,001,DairaChavez2,2022-11-03_16h09.34.898,StroopTask,2022.2.4,59.835516950734316,
XXXXXX,red,2.0,a,1,15,39,20,,,85.20809888099757,85.20809888099757,a,1,0.5112774950030143,,001,DairaChavez2,2022-11-03_16h09.34.898,StroopTask,2022.2.4,59.835516950734316,
azul,blue,0.0,f,1,16,40,7,,,86.2439312489987,86.2439312489987,f,1,0.73621998800445,,001,DairaChavez2,2022-11-03_16h09.34.898,StroopTask,2022.2.4,59.835516950734316,
XXX,green,2.0,s,1,17,41,9,,,87.51389941099842,87.51389941099842,s,1,0.6463262450051843,,001,DairaChavez2,2022-11-03_16h09.34.898,StroopTask,2022.2.4,59.835516950734316,
amarillo,red,0.0,a,1,18,42,6,,,88.6838450389987,88.6838450389987,a,1,0.6661387340027431,,001,DairaChavez2,2022-11-03_16h09.34.898,StroopTask,2022.2.4,59.835516950734316,
XXX,red,2.0,a,1,19,43,8,,,89.87031180699705,89.87031180699705,a,1,0.5723473370053398,,001,DairaChavez2,2022-11-03_16h09.34.898,StroopTask,2022.2.4,59.835516950734316,
amarillo,yellow,1.0,d,1,20,44,2,,,90.95658398500018,90.95658398500018,d,1,0.658494770003017,,001,DairaChavez2,2022-11-03_16h09.34.898,StroopTask,2022.2.4,59.835516950734316,
verde,yellow,0.0,d,1,21,45,5,,,92.12634268900001,92.12634268900001,d,1,0.7280006100008904,,001,DairaChavez2,2022-11-03_16h09.34.898,StroopTask,2022.2.4,59.835516950734316,
azul,blue,1.0,f,1,22,46,3,,,93.3629768009996,93.3629768009996,f,1,0.6631286090050708,,001,DairaChavez2,2022-11-03_16h09.34.898,StroopTask,2022.2.4,59.835516950734316,
XXXX,blue,2.0,f,1,23,47,15,,,94.53268233999916,94.53268233999916,f,1,0.8822590020026837,,001,DairaChavez2,2022-11-03_16h09.34.898,StroopTask,2022.2.4,59.835516950734316,
,,,,,,,,,,,,,,,95.46690595299879,,,,,,,
