word,colour,congruent,corrAns,trials.thisRepN,trials.thisTrialN,trials.thisN,trials.thisIndex,instruText.started,key_resp_2.started,target.started,response.started,response.keys,response.corr,response.rt,text.started,session,participant,date,expName,psychopyVersion,frameRate,
XXXXX,blue,2.0,f,0,0,0,19,18.933866749999652,18.933866749999652,31.275762958000996,31.275762958000996,f,1,1.136083833000157,,001,karlaMoreno2,2022-11-03_15h56.19.100,StroopTask,2022.2.4,60.51125963290926,
XXXXXX,green,2.0,s,0,1,1,21,,,32.9426600830011,32.9426600830011,s,1,0.7584884579991922,,001,karlaMoreno2,2022-11-03_15h56.19.100,StroopTask,2022.2.4,60.51125963290926,
XXXXXX,yellow,2.0,d,0,2,2,22,,,34.22605929100064,34.22605929100064,d,1,0.6363150420002057,,001,karlaMoreno2,2022-11-03_15h56.19.100,StroopTask,2022.2.4,60.51125963290926,
XXXXXX,red,2.0,a,0,3,3,20,,,35.392329415999484,35.392329415999484,a,1,0.6483758329995908,,001,karlaMoreno2,2022-11-03_15h56.19.100,StroopTask,2022.2.4,60.51125963290926,
XXX,blue,2.0,f,0,4,4,11,,,36.55902975000026,36.55902975000026,f,1,0.6527019170007407,,001,karlaMoreno2,2022-11-03_15h56.19.100,StroopTask,2022.2.4,60.51125963290926,
verde,green,1.0,s,0,5,5,1,,,37.74258345800081,37.74258345800081,s,1,0.7132688749989029,,001,karlaMoreno2,2022-11-03_15h56.19.100,StroopTask,2022.2.4,60.51125963290926,
XXXX,yellow,2.0,d,0,6,6,14,,,38.97586033300104,38.97586033300104,d,1,0.7080660419997002,,001,karlaMoreno2,2022-11-03_15h56.19.100,StroopTask,2022.2.4,60.51125963290926,
azul,blue,1.0,f,0,7,7,3,,,40.20956312499948,40.20956312499948,f,1,0.7736364159991354,,001,karlaMoreno2,2022-11-03_15h56.19.100,StroopTask,2022.2.4,60.51125963290926,
verde,yellow,0.0,d,0,8,8,5,,,41.50936829100101,41.50936829100101,d,1,0.7998787910000829,,001,karlaMoreno2,2022-11-03_15h56.19.100,StroopTask,2022.2.4,60.51125963290926,
XXXXX,yellow,2.0,d,0,9,9,18,,,42.82583862499996,42.82583862499996,d,1,0.6758597089992691,,001,karlaMoreno2,2022-11-03_15h56.19.100,StroopTask,2022.2.4,60.51125963290926,
XXXX,green,2.0,s,0,10,10,13,,,44.02578704100051,44.02578704100051,s,1,0.8010544999997364,,001,karlaMoreno2,2022-11-03_15h56.19.100,StroopTask,2022.2.4,60.51125963290926,
rojo,red,1.0,a,0,11,11,0,,,45.35967087500103,45.35967087500103,a,1,0.7347266249998938,,001,karlaMoreno2,2022-11-03_15h56.19.100,StroopTask,2022.2.4,60.51125963290926,
XXX,green,2.0,s,0,12,12,9,,,46.62594233299933,46.62594233299933,s,1,0.8322261670000444,,001,karlaMoreno2,2022-11-03_15h56.19.100,StroopTask,2022.2.4,60.51125963290926,
XXX,yellow,2.0,d,0,13,13,10,,,47.976396457999726,47.976396457999726,d,1,0.6616321249985049,,001,karlaMoreno2,2022-11-03_15h56.19.100,StroopTask,2022.2.4,60.51125963290926,
XXXX,blue,2.0,f,0,14,14,15,,,49.15946841600089,49.15946841600089,f,1,0.7653790839995054,,001,karlaMoreno2,2022-11-03_15h56.19.100,StroopTask,2022.2.4,60.51125963290926,
azul,blue,0.0,f,0,15,15,7,,,50.44294504100071,50.44294504100071,f,1,0.7371225419992697,,001,karlaMoreno2,2022-11-03_15h56.19.100,StroopTask,2022.2.4,60.51125963290926,
XXX,red,2.0,a,0,16,16,8,,,51.70968841600006,51.70968841600006,a,1,0.8362240839996957,,001,karlaMoreno2,2022-11-03_15h56.19.100,StroopTask,2022.2.4,60.51125963290926,
amarillo,red,0.0,a,0,17,17,6,,,53.076362750000044,53.076362750000044,a,1,0.7331635000009555,,001,karlaMoreno2,2022-11-03_15h56.19.100,StroopTask,2022.2.4,60.51125963290926,
XXXX,red,2.0,a,0,18,18,12,,,54.32612637500097,54.32612637500097,a,1,0.5814814590012247,,001,karlaMoreno2,2022-11-03_15h56.19.100,StroopTask,2022.2.4,60.51125963290926,
rojo,green,0.0,s,0,19,19,4,,,55.42610966599932,55.42610966599932,s,1,0.87147216700032,,001,karlaMoreno2,2022-11-03_15h56.19.100,StroopTask,2022.2.4,60.51125963290926,
XXXXXX,blue,2.0,f,0,20,20,23,,,56.82658254099988,56.82658254099988,f,1,0.9005610829990474,,001,karlaMoreno2,2022-11-03_15h56.19.100,StroopTask,2022.2.4,60.51125963290926,
amarillo,yellow,1.0,d,0,21,21,2,,,58.2595592079997,58.2595592079997,d,1,0.7886120420007501,,001,karlaMoreno2,2022-11-03_15h56.19.100,StroopTask,2022.2.4,60.51125963290926,
XXXXX,red,2.0,a,0,22,22,16,,,59.57604325000102,59.57604325000102,a,1,0.6746707500005868,,001,karlaMoreno2,2022-11-03_15h56.19.100,StroopTask,2022.2.4,60.51125963290926,
XXXXX,green,2.0,s,0,23,23,17,,,60.776397833000374,60.776397833000374,s,1,0.7168982920011331,,001,karlaMoreno2,2022-11-03_15h56.19.100,StroopTask,2022.2.4,60.51125963290926,
XXXXXX,red,2.0,a,1,0,24,20,,,62.009878000000754,62.009878000000754,a,1,0.7087700419997418,,001,karlaMoreno2,2022-11-03_15h56.19.100,StroopTask,2022.2.4,60.51125963290926,
XXXXX,red,2.0,a,1,1,25,16,,,63.24295504099973,63.24295504099973,a,1,0.5726900829995429,,001,karlaMoreno2,2022-11-03_15h56.19.100,StroopTask,2022.2.4,60.51125963290926,
XXXX,blue,2.0,f,1,2,26,15,,,64.34318479099966,64.34318479099966,f,1,0.8157264589990518,,001,karlaMoreno2,2022-11-03_15h56.19.100,StroopTask,2022.2.4,60.51125963290926,
XXXXX,green,2.0,s,1,3,27,17,,,65.6767155409998,65.6767155409998,s,1,0.5817500419998396,,001,karlaMoreno2,2022-11-03_15h56.19.100,StroopTask,2022.2.4,60.51125963290926,
amarillo,red,0.0,a,1,4,28,6,,,66.77662108299955,66.77662108299955,a,1,0.7813778330000787,,001,karlaMoreno2,2022-11-03_15h56.19.100,StroopTask,2022.2.4,60.51125963290926,
XXXXXX,yellow,2.0,d,1,5,29,22,,,68.07651062500008,68.07651062500008,d,1,0.7370366670002113,,001,karlaMoreno2,2022-11-03_15h56.19.100,StroopTask,2022.2.4,60.51125963290926,
XXX,blue,2.0,f,1,6,30,11,,,69.34325154100043,69.34325154100043,f,1,0.7695691670014639,,001,karlaMoreno2,2022-11-03_15h56.19.100,StroopTask,2022.2.4,60.51125963290926,
rojo,red,1.0,a,1,7,31,0,,,70.64322191599967,70.64322191599967,a,1,0.6025440410012379,,001,karlaMoreno2,2022-11-03_15h56.19.100,StroopTask,2022.2.4,60.51125963290926,
XXX,red,2.0,a,1,8,32,8,,,71.7769616250007,71.7769616250007,a,1,0.6154592500006402,,001,karlaMoreno2,2022-11-03_15h56.19.100,StroopTask,2022.2.4,60.51125963290926,
XXXXXX,green,2.0,s,1,9,33,21,,,72.90988104099961,72.90988104099961,s,1,0.5951090420003311,,001,karlaMoreno2,2022-11-03_15h56.19.100,StroopTask,2022.2.4,60.51125963290926,
XXXX,green,2.0,s,1,10,34,13,,,74.02671870800077,74.02671870800077,s,1,0.7537787089986523,,001,karlaMoreno2,2022-11-03_15h56.19.100,StroopTask,2022.2.4,60.51125963290926,
XXXX,red,2.0,a,1,11,35,12,,,75.31027362500026,75.31027362500026,a,1,0.7415571669989731,,001,karlaMoreno2,2022-11-03_15h56.19.100,StroopTask,2022.2.4,60.51125963290926,
azul,blue,1.0,f,1,12,36,3,,,76.57678325000052,76.57678325000052,f,1,0.7501077909982996,,001,karlaMoreno2,2022-11-03_15h56.19.100,StroopTask,2022.2.4,60.51125963290926,
XXX,yellow,2.0,d,1,13,37,10,,,77.84350233300029,77.84350233300029,d,1,0.7326785420009401,,001,karlaMoreno2,2022-11-03_15h56.19.100,StroopTask,2022.2.4,60.51125963290926,
XXXXX,blue,2.0,f,1,14,38,19,,,79.0939422499996,79.0939422499996,f,1,0.5535237500007497,,001,karlaMoreno2,2022-11-03_15h56.19.100,StroopTask,2022.2.4,60.51125963290926,
XXXX,yellow,2.0,d,1,15,39,14,,,80.17718291600067,80.17718291600067,d,1,0.6648706659998425,,001,karlaMoreno2,2022-11-03_15h56.19.100,StroopTask,2022.2.4,60.51125963290926,
azul,blue,0.0,f,1,16,40,7,,,81.36074262500006,81.36074262500006,f,1,0.5043311249992257,,001,karlaMoreno2,2022-11-03_15h56.19.100,StroopTask,2022.2.4,60.51125963290926,
verde,yellow,0.0,d,1,17,41,5,,,82.3937833330001,82.3937833330001,d,1,0.8428354580009909,,001,karlaMoreno2,2022-11-03_15h56.19.100,StroopTask,2022.2.4,60.51125963290926,
XXXXX,yellow,2.0,d,1,18,42,18,,,83.7602672080011,83.7602672080011,d,1,0.8022669580004731,,001,karlaMoreno2,2022-11-03_15h56.19.100,StroopTask,2022.2.4,60.51125963290926,
XXX,green,2.0,s,1,19,43,9,,,85.09387274999972,85.09387274999972,s,1,0.7251747499994963,,001,karlaMoreno2,2022-11-03_15h56.19.100,StroopTask,2022.2.4,60.51125963290926,
XXXXXX,blue,2.0,f,1,20,44,23,,,86.34379124999941,86.34379124999941,f,1,0.8121760419999191,,001,karlaMoreno2,2022-11-03_15h56.19.100,StroopTask,2022.2.4,60.51125963290926,
amarillo,yellow,1.0,d,1,21,45,2,,,87.67697679100093,87.67697679100093,d,1,0.765660791999835,,001,karlaMoreno2,2022-11-03_15h56.19.100,StroopTask,2022.2.4,60.51125963290926,
rojo,green,0.0,s,1,22,46,4,,,88.9607700409997,88.9607700409997,s,1,0.9834193750011764,,001,karlaMoreno2,2022-11-03_15h56.19.100,StroopTask,2022.2.4,60.51125963290926,
verde,green,1.0,s,1,23,47,1,,,90.46067075000065,90.46067075000065,s,1,0.6323535840001568,,001,karlaMoreno2,2022-11-03_15h56.19.100,StroopTask,2022.2.4,60.51125963290926,
,,,,,,,,,,,,,,,91.13701533300082,,,,,,,
