word,colour,congruent,corrAns,trials.thisRepN,trials.thisTrialN,trials.thisN,trials.thisIndex,instruText.started,key_resp_2.started,target.started,response.started,response.keys,response.corr,response.rt,text.started,session,participant,date,expName,psychopyVersion,frameRate,
XXX,red,2.0,a,0,0,0,8,12.731813166999927,12.731813166999927,21.79948987500029,21.79948987500029,a,1,0.9667553330000374,,001,Monica2,2022-11-03_17h19.44.676,StroopTask,2022.2.4,59.74807213486564,
XXXXXX,red,2.0,a,0,1,1,20,,,23.28320866700051,23.28320866700051,a,1,0.5917153320006037,,001,Monica2,2022-11-03_17h19.44.676,StroopTask,2022.2.4,59.74807213486564,
XXX,blue,2.0,f,0,2,2,11,,,24.399705750000066,24.399705750000066,f,1,0.8317434159980621,,001,Monica2,2022-11-03_17h19.44.676,StroopTask,2022.2.4,59.74807213486564,
XXX,yellow,2.0,d,0,3,3,10,,,25.749941584001135,25.749941584001135,d,1,0.8258172080004442,,001,Monica2,2022-11-03_17h19.44.676,StroopTask,2022.2.4,59.74807213486564,
XXXXX,green,2.0,s,0,4,4,17,,,27.099513459001173,27.099513459001173,s,1,0.7204354570003488,,001,Monica2,2022-11-03_17h19.44.676,StroopTask,2022.2.4,59.74807213486564,
XXXX,yellow,2.0,d,0,5,5,14,,,28.34975216699968,28.34975216699968,d,1,0.8166539159992681,,001,Monica2,2022-11-03_17h19.44.676,StroopTask,2022.2.4,59.74807213486564,
XXXXXX,blue,2.0,f,0,6,6,23,,,29.683182417000353,29.683182417000353,f,1,0.6731594579978264,,001,Monica2,2022-11-03_17h19.44.676,StroopTask,2022.2.4,59.74807213486564,
XXXXX,blue,2.0,f,0,7,7,19,,,30.883613792000688,30.883613792000688,f,1,0.5425509569995484,,001,Monica2,2022-11-03_17h19.44.676,StroopTask,2022.2.4,59.74807213486564,
XXXX,green,2.0,s,0,8,8,13,,,31.949983333999626,31.949983333999626,s,1,0.6669857489996502,,001,Monica2,2022-11-03_17h19.44.676,StroopTask,2022.2.4,59.74807213486564,
XXXXX,red,2.0,a,0,9,9,16,,,33.13310737500069,33.13310737500069,a,1,0.9085557909984345,,001,Monica2,2022-11-03_17h19.44.676,StroopTask,2022.2.4,59.74807213486564,
verde,green,1.0,s,0,10,10,1,,,34.56679733400051,34.56679733400051,s,1,1.0378097079992585,,001,Monica2,2022-11-03_17h19.44.676,StroopTask,2022.2.4,59.74807213486564,
amarillo,red,0.0,a,0,11,11,6,,,36.133604333999756,36.133604333999756,a,1,1.0609335410008498,,001,Monica2,2022-11-03_17h19.44.676,StroopTask,2022.2.4,59.74807213486564,
XXXX,blue,2.0,f,0,12,12,15,,,37.716553625001325,37.716553625001325,f,1,0.6561402909992466,,001,Monica2,2022-11-03_17h19.44.676,StroopTask,2022.2.4,59.74807213486564,
amarillo,yellow,1.0,d,0,13,13,2,,,38.88375216700115,38.88375216700115,d,1,0.8244033739993029,,001,Monica2,2022-11-03_17h19.44.676,StroopTask,2022.2.4,59.74807213486564,
azul,blue,1.0,f,0,14,14,3,,,40.23322929200003,40.23322929200003,f,1,0.6214067909986625,,001,Monica2,2022-11-03_17h19.44.676,StroopTask,2022.2.4,59.74807213486564,
verde,yellow,0.0,d,0,15,15,5,,,41.38401229200099,41.38401229200099,d,1,0.8337959579985181,,001,Monica2,2022-11-03_17h19.44.676,StroopTask,2022.2.4,59.74807213486564,
rojo,green,0.0,s,0,16,16,4,,,42.75046400000065,42.75046400000065,s,1,1.2167337069986388,,001,Monica2,2022-11-03_17h19.44.676,StroopTask,2022.2.4,59.74807213486564,
XXXXXX,green,2.0,s,0,17,17,21,,,44.484070250000514,44.484070250000514,s,1,0.5825638330006768,,001,Monica2,2022-11-03_17h19.44.676,StroopTask,2022.2.4,59.74807213486564,
rojo,red,1.0,a,0,18,18,0,,,45.58392504200128,45.58392504200128,a,1,0.8316066239985958,,001,Monica2,2022-11-03_17h19.44.676,StroopTask,2022.2.4,59.74807213486564,
azul,blue,0.0,f,0,19,19,7,,,46.93397916700087,46.93397916700087,f,1,0.705274833000658,,001,Monica2,2022-11-03_17h19.44.676,StroopTask,2022.2.4,59.74807213486564,
XXX,green,2.0,s,0,20,20,9,,,48.16747399999986,48.16747399999986,s,1,0.6988601659995766,,001,Monica2,2022-11-03_17h19.44.676,StroopTask,2022.2.4,59.74807213486564,
XXXXX,yellow,2.0,d,0,21,21,18,,,49.38384762500027,49.38384762500027,d,1,0.525371499998073,,001,Monica2,2022-11-03_17h19.44.676,StroopTask,2022.2.4,59.74807213486564,
XXXXXX,yellow,2.0,d,0,22,22,22,,,50.43412825000087,50.43412825000087,d,1,0.37269533300059265,,001,Monica2,2022-11-03_17h19.44.676,StroopTask,2022.2.4,59.74807213486564,
XXXX,red,2.0,a,0,23,23,12,,,51.33382474999962,51.33382474999962,a,1,0.8019395829996938,,001,Monica2,2022-11-03_17h19.44.676,StroopTask,2022.2.4,59.74807213486564,
azul,blue,1.0,f,1,0,24,3,,,52.66719129200101,52.66719129200101,f,1,0.7325273329988704,,001,Monica2,2022-11-03_17h19.44.676,StroopTask,2022.2.4,59.74807213486564,
XXX,blue,2.0,f,1,1,25,11,,,53.91721850000067,53.91721850000067,f,1,0.5632408330002363,,001,Monica2,2022-11-03_17h19.44.676,StroopTask,2022.2.4,59.74807213486564,
amarillo,red,0.0,a,1,2,26,6,,,55.00046262500109,55.00046262500109,a,1,1.8225633319980261,,001,Monica2,2022-11-03_17h19.44.676,StroopTask,2022.2.4,59.74807213486564,
XXXXXX,green,2.0,s,1,3,27,21,,,57.3506998339999,57.3506998339999,s,1,0.765081707999343,,001,Monica2,2022-11-03_17h19.44.676,StroopTask,2022.2.4,59.74807213486564,
XXXXX,yellow,2.0,d,1,4,28,18,,,58.63405200000125,58.63405200000125,d,1,0.8737299999993411,,001,Monica2,2022-11-03_17h19.44.676,StroopTask,2022.2.4,59.74807213486564,
amarillo,yellow,1.0,d,1,5,29,2,,,60.0340519170004,60.0340519170004,d,1,1.2619498320000275,,001,Monica2,2022-11-03_17h19.44.676,StroopTask,2022.2.4,59.74807213486564,
XXXXX,blue,2.0,f,1,6,30,19,,,61.81726200000048,61.81726200000048,f,1,0.7743498739982897,,001,Monica2,2022-11-03_17h19.44.676,StroopTask,2022.2.4,59.74807213486564,
XXXXX,green,2.0,s,1,7,31,17,,,63.11765687499974,63.11765687499974,s,1,0.6620350409993989,,001,Monica2,2022-11-03_17h19.44.676,StroopTask,2022.2.4,59.74807213486564,
verde,yellow,0.0,d,1,8,32,5,,,64.30100662500081,64.30100662500081,d,1,0.9709389569979976,,001,Monica2,2022-11-03_17h19.44.676,StroopTask,2022.2.4,59.74807213486564,
XXXXX,red,2.0,a,1,9,33,16,,,65.80082883400064,65.80082883400064,a,1,0.7447191659994132,,001,Monica2,2022-11-03_17h19.44.676,StroopTask,2022.2.4,59.74807213486564,
XXXXXX,red,2.0,a,1,10,34,20,,,67.06760695900084,67.06760695900084,a,1,0.6504434580001544,,001,Monica2,2022-11-03_17h19.44.676,StroopTask,2022.2.4,59.74807213486564,
XXX,yellow,2.0,d,1,11,35,10,,,68.23414708400014,68.23414708400014,d,1,0.698380873998758,,001,Monica2,2022-11-03_17h19.44.676,StroopTask,2022.2.4,59.74807213486564,
rojo,green,0.0,s,1,12,36,4,,,69.4507357500006,69.4507357500006,s,1,0.8381010409993905,,001,Monica2,2022-11-03_17h19.44.676,StroopTask,2022.2.4,59.74807213486564,
rojo,red,1.0,a,1,13,37,0,,,70.81739245900098,70.81739245900098,a,1,0.870697124999424,,001,Monica2,2022-11-03_17h19.44.676,StroopTask,2022.2.4,59.74807213486564,
XXXX,red,2.0,a,1,14,38,12,,,72.21780287500042,72.21780287500042,a,1,0.40680979099852266,,001,Monica2,2022-11-03_17h19.44.676,StroopTask,2022.2.4,59.74807213486564,
verde,green,1.0,s,1,15,39,1,,,73.15103724999972,73.15103724999972,s,1,0.8435197499984497,,001,Monica2,2022-11-03_17h19.44.676,StroopTask,2022.2.4,59.74807213486564,
XXXXXX,blue,2.0,f,1,16,40,23,,,74.51765770900056,74.51765770900056,f,1,0.7365811660001782,,001,Monica2,2022-11-03_17h19.44.676,StroopTask,2022.2.4,59.74807213486564,
XXX,green,2.0,s,1,17,41,9,,,75.78421225000056,75.78421225000056,s,1,0.9298194159982813,,001,Monica2,2022-11-03_17h19.44.676,StroopTask,2022.2.4,59.74807213486564,
azul,blue,0.0,f,1,18,42,7,,,77.23436445900006,77.23436445900006,f,1,0.9167789579987584,,001,Monica2,2022-11-03_17h19.44.676,StroopTask,2022.2.4,59.74807213486564,
XXXXXX,yellow,2.0,d,1,19,43,22,,,78.66802716700113,78.66802716700113,d,1,0.6925607079992915,,001,Monica2,2022-11-03_17h19.44.676,StroopTask,2022.2.4,59.74807213486564,
XXXX,blue,2.0,f,1,20,44,15,,,79.88491595900086,79.88491595900086,f,1,0.6375703329995304,,001,Monica2,2022-11-03_17h19.44.676,StroopTask,2022.2.4,59.74807213486564,
XXXX,green,2.0,s,1,21,45,13,,,81.05138741700102,81.05138741700102,s,1,0.7337049990001105,,001,Monica2,2022-11-03_17h19.44.676,StroopTask,2022.2.4,59.74807213486564,
XXXX,yellow,2.0,d,1,22,46,14,,,82.31775700000071,82.31775700000071,d,1,0.7110360409988061,,001,Monica2,2022-11-03_17h19.44.676,StroopTask,2022.2.4,59.74807213486564,
XXX,red,2.0,a,1,23,47,8,,,83.5520994590006,83.5520994590006,a,1,0.8240292079990468,,001,Monica2,2022-11-03_17h19.44.676,StroopTask,2022.2.4,59.74807213486564,
,,,,,,,,,,,,,,,84.4263612499999,,,,,,,
