word,colour,congruent,corrAns,trials.thisRepN,trials.thisTrialN,trials.thisN,trials.thisIndex,instruText.started,key_resp_2.started,target.started,response.started,response.keys,response.corr,response.rt,text.started,session,participant,date,expName,psychopyVersion,frameRate,
XXX,red,2.0,a,0,0,0,8,13.853715708944947,13.853715708944947,37.98210437502712,37.98210437502712,a,1,1.0481397081166506,,001,SuryGlez,2022-10-27_11h08.00.944,StroopTask,2022.2.4,None,
XXXXXX,yellow,2.0,d,0,1,1,22,,,39.55278187501244,39.55278187501244,d,1,0.7671127491630614,,001,SuryGlez,2022-10-27_11h08.00.944,StroopTask,2022.2.4,None,
rojo,green,0.0,s,0,2,2,4,,,40.8486993748229,40.8486993748229,s,1,0.8068605412263423,,001,SuryGlez,2022-10-27_11h08.00.944,StroopTask,2022.2.4,None,
XXXXX,green,2.0,s,0,3,3,17,,,42.182553249876946,42.182553249876946,d,0,0.7096914160065353,,001,SuryGlez,2022-10-27_11h08.00.944,StroopTask,2022.2.4,None,
XXXXXX,blue,2.0,f,0,4,4,23,,,43.40328800003044,43.40328800003044,f,1,0.831153207225725,,001,SuryGlez,2022-10-27_11h08.00.944,StroopTask,2022.2.4,None,
amarillo,yellow,1.0,d,0,5,5,2,,,44.751947458833456,44.751947458833456,d,1,0.7909884580876678,,001,SuryGlez,2022-10-27_11h08.00.944,StroopTask,2022.2.4,None,
XXXX,red,2.0,a,0,6,6,12,,,46.06939837499522,46.06939837499522,a,1,0.6371904991101474,,001,SuryGlez,2022-10-27_11h08.00.944,StroopTask,2022.2.4,None,
XXXXXX,green,2.0,s,0,7,7,21,,,47.219422791851684,47.219422791851684,s,1,1.0379037912935019,,001,SuryGlez,2022-10-27_11h08.00.944,StroopTask,2022.2.4,None,
XXX,yellow,2.0,d,0,8,8,10,,,48.78166999993846,48.78166999993846,d,1,0.46989116608165205,,001,SuryGlez,2022-10-27_11h08.00.944,StroopTask,2022.2.4,None,
XXX,green,2.0,s,0,9,9,9,,,49.7816390839871,49.7816390839871,s,1,0.6119880832266062,,001,SuryGlez,2022-10-27_11h08.00.944,StroopTask,2022.2.4,None,
azul,blue,0.0,f,0,10,10,7,,,50.91479037492536,50.91479037492536,a,0,0.7806515409611166,,001,SuryGlez,2022-10-27_11h08.00.944,StroopTask,2022.2.4,None,
XXX,blue,2.0,f,0,11,11,11,,,52.20247312495485,52.20247312495485,f,1,0.5873542081099004,,001,SuryGlez,2022-10-27_11h08.00.944,StroopTask,2022.2.4,None,
amarillo,red,0.0,a,0,12,12,6,,,53.318936416879296,53.318936416879296,a,1,0.8236472080461681,,001,SuryGlez,2022-10-27_11h08.00.944,StroopTask,2022.2.4,None,
XXXX,yellow,2.0,d,0,13,13,14,,,54.66869395901449,54.66869395901449,d,1,0.815260540926829,,001,SuryGlez,2022-10-27_11h08.00.944,StroopTask,2022.2.4,None,
XXXX,blue,2.0,f,0,14,14,15,,,56.00226974999532,56.00226974999532,f,1,0.7645418741740286,,001,SuryGlez,2022-10-27_11h08.00.944,StroopTask,2022.2.4,None,
XXXX,green,2.0,s,0,15,15,13,,,57.29799949983135,57.29799949983135,s,1,0.672142124036327,,001,SuryGlez,2022-10-27_11h08.00.944,StroopTask,2022.2.4,None,
azul,blue,1.0,f,0,16,16,3,,,58.49790491699241,58.49790491699241,f,1,0.574413332156837,,001,SuryGlez,2022-10-27_11h08.00.944,StroopTask,2022.2.4,None,
XXXXX,red,2.0,a,0,17,17,16,,,59.602217791834846,59.602217791834846,a,1,0.6573936240747571,,001,SuryGlez,2022-10-27_11h08.00.944,StroopTask,2022.2.4,None,
XXXXX,yellow,2.0,d,0,18,18,18,,,60.784962833859026,60.784962833859026,d,1,0.6923003741540015,,001,SuryGlez,2022-10-27_11h08.00.944,StroopTask,2022.2.4,None,
verde,yellow,0.0,d,0,19,19,5,,,62.00225337501615,62.00225337501615,d,1,0.6091406659688801,,001,SuryGlez,2022-10-27_11h08.00.944,StroopTask,2022.2.4,None,
XXXXXX,red,2.0,a,0,20,20,20,,,63.13578391680494,63.13578391680494,a,1,0.786587999900803,,001,SuryGlez,2022-10-27_11h08.00.944,StroopTask,2022.2.4,None,
XXXXX,blue,2.0,f,0,21,21,19,,,64.45168020902202,64.45168020902202,f,1,0.7368274992331862,,001,SuryGlez,2022-10-27_11h08.00.944,StroopTask,2022.2.4,None,
rojo,red,1.0,a,0,22,22,0,,,65.71806279197335,65.71806279197335,a,1,0.8842007082421333,,001,SuryGlez,2022-10-27_11h08.00.944,StroopTask,2022.2.4,None,
verde,green,1.0,s,0,23,23,1,,,67.13527641701512,67.13527641701512,s,1,0.9341868332121521,,001,SuryGlez,2022-10-27_11h08.00.944,StroopTask,2022.2.4,None,
rojo,green,0.0,s,1,0,24,4,,,68.58466495899484,68.58466495899484,s,1,0.7772335410118103,,001,SuryGlez,2022-10-27_11h08.00.944,StroopTask,2022.2.4,None,
XXXXXX,yellow,2.0,d,1,1,25,22,,,69.86830116691999,69.86830116691999,d,1,0.7306737082544714,,001,SuryGlez,2022-10-27_11h08.00.944,StroopTask,2022.2.4,None,
verde,green,1.0,s,1,2,26,1,,,71.11808174988255,71.11808174988255,s,1,0.747147582937032,,001,SuryGlez,2022-10-27_11h08.00.944,StroopTask,2022.2.4,None,
amarillo,red,0.0,a,1,3,27,6,,,72.38441633386537,72.38441633386537,d,0,0.9488198740873486,,001,SuryGlez,2022-10-27_11h08.00.944,StroopTask,2022.2.4,None,
amarillo,yellow,1.0,d,1,4,28,2,,,73.85136074991897,73.85136074991897,d,1,0.7310272911563516,,001,SuryGlez,2022-10-27_11h08.00.944,StroopTask,2022.2.4,None,
XXX,yellow,2.0,d,1,5,29,10,,,75.09814562485553,75.09814562485553,d,1,0.5101910831872374,,001,SuryGlez,2022-10-27_11h08.00.944,StroopTask,2022.2.4,None,
XXXX,red,2.0,a,1,6,30,12,,,76.11764916684479,76.11764916684479,a,1,0.5776069581042975,,001,SuryGlez,2022-10-27_11h08.00.944,StroopTask,2022.2.4,None,
azul,blue,1.0,f,1,7,31,3,,,77.2011063748505,77.2011063748505,f,1,0.6015213320497423,,001,SuryGlez,2022-10-27_11h08.00.944,StroopTask,2022.2.4,None,
XXXXX,yellow,2.0,d,1,8,32,18,,,78.31775129190646,78.31775129190646,d,1,0.8031756239943206,,001,SuryGlez,2022-10-27_11h08.00.944,StroopTask,2022.2.4,None,
XXXXX,blue,2.0,f,1,9,33,19,,,79.65101899998263,79.65101899998263,f,1,0.806224832078442,,001,SuryGlez,2022-10-27_11h08.00.944,StroopTask,2022.2.4,None,
XXXXXX,blue,2.0,f,1,10,34,23,,,80.98405516683124,80.98405516683124,f,1,0.6285878741182387,,001,SuryGlez,2022-10-27_11h08.00.944,StroopTask,2022.2.4,None,
XXXX,blue,2.0,f,1,11,35,15,,,82.11747516691685,82.11747516691685,f,1,0.597227041143924,,001,SuryGlez,2022-10-27_11h08.00.944,StroopTask,2022.2.4,None,
XXXXXX,red,2.0,a,1,12,36,20,,,83.23193083400838,83.23193083400838,a,1,0.5869149572681636,,001,SuryGlez,2022-10-27_11h08.00.944,StroopTask,2022.2.4,None,
XXX,blue,2.0,f,1,13,37,11,,,84.33401662483811,84.33401662483811,f,1,0.6040224160533398,,001,SuryGlez,2022-10-27_11h08.00.944,StroopTask,2022.2.4,None,
XXXX,yellow,2.0,d,1,14,38,14,,,85.45079587493092,85.45079587493092,d,1,0.6386365410871804,,001,SuryGlez,2022-10-27_11h08.00.944,StroopTask,2022.2.4,None,
rojo,red,1.0,a,1,15,39,0,,,86.60045320889913,86.60045320889913,a,1,0.8293505820911378,,001,SuryGlez,2022-10-27_11h08.00.944,StroopTask,2022.2.4,None,
XXXX,green,2.0,s,1,16,40,13,,,87.9342399588786,87.9342399588786,s,1,0.4775575832463801,,001,SuryGlez,2022-10-27_11h08.00.944,StroopTask,2022.2.4,None,
azul,blue,0.0,f,1,17,41,7,,,88.91788233397529,88.91788233397529,f,1,0.48024766612797976,,001,SuryGlez,2022-10-27_11h08.00.944,StroopTask,2022.2.4,None,
verde,yellow,0.0,d,1,18,42,5,,,89.91727624996565,89.91727624996565,d,1,0.467944998992607,,001,SuryGlez,2022-10-27_11h08.00.944,StroopTask,2022.2.4,None,
XXX,green,2.0,s,1,19,43,9,,,90.91709591681138,90.91709591681138,a,0,0.6723116661887616,,001,SuryGlez,2022-10-27_11h08.00.944,StroopTask,2022.2.4,None,
XXXXX,green,2.0,s,1,20,44,17,,,92.1171434998978,92.1171434998978,s,1,0.8663952490314841,,001,SuryGlez,2022-10-27_11h08.00.944,StroopTask,2022.2.4,None,
XXXXXX,green,2.0,s,1,21,45,21,,,93.47965774987824,93.47965774987824,s,1,0.584448833251372,,001,SuryGlez,2022-10-27_11h08.00.944,StroopTask,2022.2.4,None,
XXXXX,red,2.0,a,1,22,46,16,,,94.58336824993603,94.58336824993603,a,1,0.562432291219011,,001,SuryGlez,2022-10-27_11h08.00.944,StroopTask,2022.2.4,None,
XXX,red,2.0,a,1,23,47,8,,,95.65060820896178,95.65060820896178,s,0,0.5793347910512239,,001,SuryGlez,2022-10-27_11h08.00.944,StroopTask,2022.2.4,None,
,,,,,,,,,,,,,,,96.26556824985892,,,,,,,
