word,colour,congruent,corrAns,trials.thisRepN,trials.thisTrialN,trials.thisN,trials.thisIndex,instruText.started,key_resp_2.started,target.started,response.started,response.keys,response.corr,response.rt,text.started,session,participant,date,expName,psychopyVersion,frameRate,
XXXX,red,2.0,a,0,0,0,12,21.2381803749995,21.2381803749995,53.93603037499997,53.93603037499997,a,1,1.3225536669997382,,001,VianyMuñoz2,2022-11-03_22h41.45.473,StroopTask,2022.2.4,59.96769252550225,
XXX,yellow,2.0,d,0,1,1,10,,,55.786345374999655,55.786345374999655,d,1,0.9767879169994558,,001,VianyMuñoz2,2022-11-03_22h41.45.473,StroopTask,2022.2.4,59.96769252550225,
rojo,red,1.0,a,0,2,2,0,,,57.286171749999994,57.286171749999994,a,1,0.8582980829996814,,001,VianyMuñoz2,2022-11-03_22h41.45.473,StroopTask,2022.2.4,59.96769252550225,
XXXXX,green,2.0,s,0,3,3,17,,,58.66959825000049,58.66959825000049,s,1,1.1960383330006152,,001,VianyMuñoz2,2022-11-03_22h41.45.473,StroopTask,2022.2.4,59.96769252550225,
XXXXXX,blue,2.0,f,0,4,4,23,,,60.386324082999636,60.386324082999636,f,1,0.9420645419995708,,001,VianyMuñoz2,2022-11-03_22h41.45.473,StroopTask,2022.2.4,59.96769252550225,
azul,blue,1.0,f,0,5,5,3,,,61.85318245800045,61.85318245800045,f,1,0.765591665998727,,001,VianyMuñoz2,2022-11-03_22h41.45.473,StroopTask,2022.2.4,59.96769252550225,
XXXXXX,red,2.0,a,0,6,6,20,,,63.136363875000825,63.136363875000825,a,1,0.833278624999366,,001,VianyMuñoz2,2022-11-03_22h41.45.473,StroopTask,2022.2.4,59.96769252550225,
XXXXX,blue,2.0,f,0,7,7,19,,,64.47059391600123,64.47059391600123,f,1,0.8291106249998847,,001,VianyMuñoz2,2022-11-03_22h41.45.473,StroopTask,2022.2.4,59.96769252550225,
XXX,green,2.0,s,0,8,8,9,,,65.82001320800009,65.82001320800009,s,1,0.9421383749995584,,001,VianyMuñoz2,2022-11-03_22h41.45.473,StroopTask,2022.2.4,59.96769252550225,
verde,yellow,0.0,d,0,9,9,5,,,67.28652658300052,67.28652658300052,d,1,1.0396334580000257,,001,VianyMuñoz2,2022-11-03_22h41.45.473,StroopTask,2022.2.4,59.96769252550225,
XXXXX,red,2.0,a,0,10,10,16,,,68.85309337500075,68.85309337500075,a,1,0.7592167910006538,,001,VianyMuñoz2,2022-11-03_22h41.45.473,StroopTask,2022.2.4,59.96769252550225,
azul,blue,0.0,f,0,11,11,7,,,70.13641354100037,70.13641354100037,f,1,0.6533278339993558,,001,VianyMuñoz2,2022-11-03_22h41.45.473,StroopTask,2022.2.4,59.96769252550225,
XXX,blue,2.0,f,0,12,12,11,,,71.32022554099967,71.32022554099967,f,1,0.5851832090011158,,001,VianyMuñoz2,2022-11-03_22h41.45.473,StroopTask,2022.2.4,59.96769252550225,
XXXX,blue,2.0,f,0,13,13,15,,,72.43642870800068,72.43642870800068,f,1,0.5652417090004747,,001,VianyMuñoz2,2022-11-03_22h41.45.473,StroopTask,2022.2.4,59.96769252550225,
XXXX,green,2.0,s,0,14,14,13,,,73.51991724999971,73.51991724999971,s,1,0.7778844160002336,,001,VianyMuñoz2,2022-11-03_22h41.45.473,StroopTask,2022.2.4,59.96769252550225,
verde,green,1.0,s,0,15,15,1,,,74.82033329099977,74.82033329099977,s,1,0.7491872919999878,,001,VianyMuñoz2,2022-11-03_22h41.45.473,StroopTask,2022.2.4,59.96769252550225,
XXXXX,yellow,2.0,d,0,16,16,18,,,76.08720008300043,76.08720008300043,d,1,0.7943315829998028,,001,VianyMuñoz2,2022-11-03_22h41.45.473,StroopTask,2022.2.4,59.96769252550225,
XXXX,yellow,2.0,d,0,17,17,14,,,77.40308366600038,77.40308366600038,d,1,0.49972449999950186,,001,VianyMuñoz2,2022-11-03_22h41.45.473,StroopTask,2022.2.4,59.96769252550225,
amarillo,yellow,1.0,d,0,18,18,2,,,78.41995020800096,78.41995020800096,d,1,0.8455532920015685,,001,VianyMuñoz2,2022-11-03_22h41.45.473,StroopTask,2022.2.4,59.96769252550225,
XXX,red,2.0,a,0,19,19,8,,,79.78701658300088,79.78701658300088,a,1,0.7883297499993205,,001,VianyMuñoz2,2022-11-03_22h41.45.473,StroopTask,2022.2.4,59.96769252550225,
XXXXXX,green,2.0,s,0,20,20,21,,,81.10363016600058,81.10363016600058,s,1,1.0781475839994528,,001,VianyMuñoz2,2022-11-03_22h41.45.473,StroopTask,2022.2.4,59.96769252550225,
XXXXXX,yellow,2.0,d,0,21,21,22,,,82.70354595800018,82.70354595800018,d,1,0.6206066670001746,,001,VianyMuñoz2,2022-11-03_22h41.45.473,StroopTask,2022.2.4,59.96769252550225,
amarillo,red,0.0,a,0,22,22,6,,,83.85353004100034,83.85353004100034,a,1,1.6318481670004985,,001,VianyMuñoz2,2022-11-03_22h41.45.473,StroopTask,2022.2.4,59.96769252550225,
rojo,green,0.0,s,0,23,23,4,,,86.0040484580004,86.0040484580004,s,1,1.796280165999633,,001,VianyMuñoz2,2022-11-03_22h41.45.473,StroopTask,2022.2.4,59.96769252550225,
rojo,red,1.0,a,1,0,24,0,,,88.32071637500121,88.32071637500121,a,1,1.0515495840008953,,001,VianyMuñoz2,2022-11-03_22h41.45.473,StroopTask,2022.2.4,59.96769252550225,
verde,yellow,0.0,d,1,1,25,5,,,89.9037507080011,89.9037507080011,d,1,1.5349237079990417,,001,VianyMuñoz2,2022-11-03_22h41.45.473,StroopTask,2022.2.4,59.96769252550225,
verde,green,1.0,s,1,2,26,1,,,91.95407291599986,91.95407291599986,s,1,0.8826752090008085,,001,VianyMuñoz2,2022-11-03_22h41.45.473,StroopTask,2022.2.4,59.96769252550225,
amarillo,red,0.0,a,1,3,27,6,,,93.35407841599954,93.35407841599954,a,1,1.233527165999476,,001,VianyMuñoz2,2022-11-03_22h41.45.473,StroopTask,2022.2.4,59.96769252550225,
amarillo,yellow,1.0,d,1,4,28,2,,,95.10402166600034,95.10402166600034,d,1,0.9864069579998613,,001,VianyMuñoz2,2022-11-03_22h41.45.473,StroopTask,2022.2.4,59.96769252550225,
XXXXX,red,2.0,a,1,5,29,16,,,96.62057966599968,96.62057966599968,a,1,0.8154822920005245,,001,VianyMuñoz2,2022-11-03_22h41.45.473,StroopTask,2022.2.4,59.96769252550225,
XXXXX,yellow,2.0,d,1,6,30,18,,,97.95387679099986,97.95387679099986,d,1,0.7416399170015211,,001,VianyMuñoz2,2022-11-03_22h41.45.473,StroopTask,2022.2.4,59.96769252550225,
XXX,blue,2.0,f,1,7,31,11,,,99.2204244580007,99.2204244580007,f,1,0.859752500000468,,001,VianyMuñoz2,2022-11-03_22h41.45.473,StroopTask,2022.2.4,59.96769252550225,
XXXX,green,2.0,s,1,8,32,13,,,100.60435262499959,100.60435262499959,s,1,0.8325116250016436,,001,VianyMuñoz2,2022-11-03_22h41.45.473,StroopTask,2022.2.4,59.96769252550225,
azul,blue,0.0,f,1,9,33,7,,,101.95387937499981,101.95387937499981,f,1,0.8011335829996824,,001,VianyMuñoz2,2022-11-03_22h41.45.473,StroopTask,2022.2.4,59.96769252550225,
rojo,green,0.0,s,1,10,34,4,,,103.28720837500077,103.28720837500077,s,1,1.1865047909996065,,001,VianyMuñoz2,2022-11-03_22h41.45.473,StroopTask,2022.2.4,59.96769252550225,
XXXX,red,2.0,a,1,11,35,12,,,105.00430670800051,105.00430670800051,a,1,0.8772795839995524,,001,VianyMuñoz2,2022-11-03_22h41.45.473,StroopTask,2022.2.4,59.96769252550225,
XXXXXX,yellow,2.0,d,1,12,36,22,,,106.40394495799956,106.40394495799956,d,1,0.6358719580002798,,001,VianyMuñoz2,2022-11-03_22h41.45.473,StroopTask,2022.2.4,59.96769252550225,
XXX,yellow,2.0,d,1,13,37,10,,,107.57113800000116,107.57113800000116,d,1,0.666159083999446,,001,VianyMuñoz2,2022-11-03_22h41.45.473,StroopTask,2022.2.4,59.96769252550225,
XXXXXX,green,2.0,s,1,14,38,21,,,108.75410345800083,108.75410345800083,s,1,1.2087436669989984,,001,VianyMuñoz2,2022-11-03_22h41.45.473,StroopTask,2022.2.4,59.96769252550225,
XXXXX,green,2.0,s,1,15,39,17,,,110.48743033299979,110.48743033299979,s,1,0.7038592089993472,,001,VianyMuñoz2,2022-11-03_22h41.45.473,StroopTask,2022.2.4,59.96769252550225,
XXXX,blue,2.0,f,1,16,40,15,,,111.72124274999987,111.72124274999987,f,1,0.5608934169995337,,001,VianyMuñoz2,2022-11-03_22h41.45.473,StroopTask,2022.2.4,59.96769252550225,
XXXXX,blue,2.0,f,1,17,41,19,,,112.8045137500012,112.8045137500012,f,1,0.5014201249996404,,001,VianyMuñoz2,2022-11-03_22h41.45.473,StroopTask,2022.2.4,59.96769252550225,
azul,blue,1.0,f,1,18,42,3,,,113.837658208,113.837658208,f,1,0.5648329159994319,,001,VianyMuñoz2,2022-11-03_22h41.45.473,StroopTask,2022.2.4,59.96769252550225,
XXXXXX,blue,2.0,f,1,19,43,23,,,114.9211111250006,114.9211111250006,f,1,0.5813716669999849,,001,VianyMuñoz2,2022-11-03_22h41.45.473,StroopTask,2022.2.4,59.96769252550225,
XXX,red,2.0,a,1,20,44,8,,,116.02138379099961,116.02138379099961,a,1,0.7340174159999151,,001,VianyMuñoz2,2022-11-03_22h41.45.473,StroopTask,2022.2.4,59.96769252550225,
XXXXXX,red,2.0,a,1,21,45,20,,,117.28773479099982,117.28773479099982,a,1,0.745474708999609,,001,VianyMuñoz2,2022-11-03_22h41.45.473,StroopTask,2022.2.4,59.96769252550225,
XXX,green,2.0,s,1,22,46,9,,,118.55436437500066,118.55436437500066,s,1,1.1567945000006148,,001,VianyMuñoz2,2022-11-03_22h41.45.473,StroopTask,2022.2.4,59.96769252550225,
XXXX,yellow,2.0,d,1,23,47,14,,,120.23832816600043,120.23832816600043,d,1,0.7775269579997257,,001,VianyMuñoz2,2022-11-03_22h41.45.473,StroopTask,2022.2.4,59.96769252550225,
,,,,,,,,,,,,,,,121.06674787500015,,,,,,,
