word,colour,congruent,corrAns,trials.thisRepN,trials.thisTrialN,trials.thisN,trials.thisIndex,instruText.started,key_resp_2.started,target.started,response.started,response.keys,response.corr,response.rt,text.started,session,participant,date,expName,psychopyVersion,frameRate,
rojo,green,0.0,s,0,0,0,4,18.12027533305809,18.12027533305809,43.8813631250523,43.8813631250523,s,1,1.1544472509995103,,001,Jovanatrejo,2022-10-27_15h54.47.943,StroopTask,2022.2.4,None,
XXXXXX,red,2.0,a,0,1,1,20,,,45.566372958011925,45.566372958011925,a,1,1.4644791670143604,,001,Jovanatrejo,2022-10-27_15h54.47.943,StroopTask,2022.2.4,None,
XXX,red,2.0,a,0,2,2,8,,,47.53521854104474,47.53521854104474,a,1,0.7918962079565972,,001,Jovanatrejo,2022-10-27_15h54.47.943,StroopTask,2022.2.4,None,
XXXXXX,green,2.0,s,0,3,3,21,,,48.85202150000259,48.85202150000259,s,1,0.9335879168938845,,001,Jovanatrejo,2022-10-27_15h54.47.943,StroopTask,2022.2.4,None,
azul,blue,1.0,f,0,4,4,3,,,50.29951108293608,50.29951108293608,f,1,1.4340347917750478,,001,Jovanatrejo,2022-10-27_15h54.47.943,StroopTask,2022.2.4,None,
XXXX,yellow,2.0,d,0,5,5,14,,,52.25221912492998,52.25221912492998,d,1,0.9625791667494923,,001,Jovanatrejo,2022-10-27_15h54.47.943,StroopTask,2022.2.4,None,
XXXXXX,blue,2.0,f,0,6,6,23,,,53.734769582981244,53.734769582981244,f,1,0.9926138340961188,,001,Jovanatrejo,2022-10-27_15h54.47.943,StroopTask,2022.2.4,None,
XXX,green,2.0,s,0,7,7,9,,,55.25180649990216,55.25180649990216,s,1,0.9604812087491155,,001,Jovanatrejo,2022-10-27_15h54.47.943,StroopTask,2022.2.4,None,
XXXXX,yellow,2.0,d,0,8,8,18,,,56.71838791598566,56.71838791598566,d,1,1.1904447090346366,,001,Jovanatrejo,2022-10-27_15h54.47.943,StroopTask,2022.2.4,None,
verde,green,1.0,s,0,9,9,1,,,58.43297474994324,58.43297474994324,s,1,1.282800749875605,,001,Jovanatrejo,2022-10-27_15h54.47.943,StroopTask,2022.2.4,None,
XXXXX,red,2.0,a,0,10,10,16,,,60.2331314580515,60.2331314580515,a,1,1.028771250974387,,001,Jovanatrejo,2022-10-27_15h54.47.943,StroopTask,2022.2.4,None,
XXXX,blue,2.0,f,0,11,11,15,,,61.78495020791888,61.78495020791888,f,1,1.0731205421034247,,001,Jovanatrejo,2022-10-27_15h54.47.943,StroopTask,2022.2.4,None,
azul,blue,0.0,f,0,12,12,7,,,63.38434183294885,63.38434183294885,f,1,0.8639157088473439,,001,Jovanatrejo,2022-10-27_15h54.47.943,StroopTask,2022.2.4,None,
XXXXXX,yellow,2.0,d,0,13,13,22,,,64.74726008297876,64.74726008297876,d,1,1.1183502508793026,,001,Jovanatrejo,2022-10-27_15h54.47.943,StroopTask,2022.2.4,None,
XXXX,green,2.0,s,0,14,14,13,,,66.38424458284862,66.38424458284862,s,1,1.5093418338801712,,001,Jovanatrejo,2022-10-27_15h54.47.943,StroopTask,2022.2.4,None,
XXX,yellow,2.0,d,0,15,15,10,,,68.39700574986637,68.39700574986637,d,1,1.1745164168532938,,001,Jovanatrejo,2022-10-27_15h54.47.943,StroopTask,2022.2.4,None,
amarillo,red,0.0,a,0,16,16,6,,,70.09695529099554,70.09695529099554,a,1,1.3545465839561075,,001,Jovanatrejo,2022-10-27_15h54.47.943,StroopTask,2022.2.4,None,
XXXX,red,2.0,a,0,17,17,12,,,71.98426695796661,71.98426695796661,a,1,0.8143317077774554,,001,Jovanatrejo,2022-10-27_15h54.47.943,StroopTask,2022.2.4,None,
XXXXX,blue,2.0,f,0,18,18,19,,,73.33443104103208,73.33443104103208,f,1,1.048801084049046,,001,Jovanatrejo,2022-10-27_15h54.47.943,StroopTask,2022.2.4,None,
verde,yellow,0.0,d,0,19,19,5,,,74.88331249984913,74.88331249984913,d,1,1.1618622089736164,,001,Jovanatrejo,2022-10-27_15h54.47.943,StroopTask,2022.2.4,None,
XXX,blue,2.0,f,0,20,20,11,,,76.54665658297017,76.54665658297017,f,1,1.1526792088989168,,001,Jovanatrejo,2022-10-27_15h54.47.943,StroopTask,2022.2.4,None,
rojo,red,1.0,a,0,21,21,0,,,78.23370358301327,78.23370358301327,a,1,1.2828655829653144,,001,Jovanatrejo,2022-10-27_15h54.47.943,StroopTask,2022.2.4,None,
amarillo,yellow,1.0,d,0,22,22,2,,,80.03434758284129,80.03434758284129,d,1,1.0870296671055257,,001,Jovanatrejo,2022-10-27_15h54.47.943,StroopTask,2022.2.4,None,
XXXXX,green,2.0,s,0,23,23,17,,,81.64649883285165,81.64649883285165,s,1,1.0616692919284105,,001,Jovanatrejo,2022-10-27_15h54.47.943,StroopTask,2022.2.4,None,
XXXXXX,red,2.0,a,1,0,24,20,,,83.23344458290376,83.23344458290376,a,1,0.9316037078388035,,001,Jovanatrejo,2022-10-27_15h54.47.943,StroopTask,2022.2.4,None,
rojo,red,1.0,a,1,1,25,0,,,84.68388883303851,84.68388883303851,a,1,1.0148644999135286,,001,Jovanatrejo,2022-10-27_15h54.47.943,StroopTask,2022.2.4,None,
rojo,green,0.0,s,1,2,26,4,,,86.23363983305171,86.23363983305171,s,1,1.1347490008920431,,001,Jovanatrejo,2022-10-27_15h54.47.943,StroopTask,2022.2.4,None,
XXXXX,blue,2.0,f,1,3,27,19,,,87.88367774989456,87.88367774989456,f,1,1.0307204579003155,,001,Jovanatrejo,2022-10-27_15h54.47.943,StroopTask,2022.2.4,None,
azul,blue,0.0,f,1,4,28,7,,,89.43388395803049,89.43388395803049,f,1,0.9534576251171529,,001,Jovanatrejo,2022-10-27_15h54.47.943,StroopTask,2022.2.4,None,
XXXXXX,blue,2.0,f,1,5,29,23,,,90.89613291597925,90.89613291597925,f,1,0.9612505829427391,,001,Jovanatrejo,2022-10-27_15h54.47.943,StroopTask,2022.2.4,None,
XXX,green,2.0,s,1,6,30,9,,,92.38360399985686,92.38360399985686,s,1,0.9321407089009881,,001,Jovanatrejo,2022-10-27_15h54.47.943,StroopTask,2022.2.4,None,
XXXXX,red,2.0,a,1,7,31,16,,,93.83337179105729,93.83337179105729,a,1,0.9253189170267433,,001,Jovanatrejo,2022-10-27_15h54.47.943,StroopTask,2022.2.4,None,
XXXX,green,2.0,s,1,8,32,13,,,95.28371099987999,95.28371099987999,s,1,0.919651584001258,,001,Jovanatrejo,2022-10-27_15h54.47.943,StroopTask,2022.2.4,None,
XXX,red,2.0,a,1,9,33,8,,,96.73346895794384,96.73346895794384,a,1,0.8818785829935223,,001,Jovanatrejo,2022-10-27_15h54.47.943,StroopTask,2022.2.4,None,
XXX,blue,2.0,f,1,10,34,11,,,98.13423379091546,98.13423379091546,f,1,0.8309337918180972,,001,Jovanatrejo,2022-10-27_15h54.47.943,StroopTask,2022.2.4,None,
XXXX,yellow,2.0,d,1,11,35,14,,,99.46716124983504,99.46716124983504,d,1,1.1002824590541422,,001,Jovanatrejo,2022-10-27_15h54.47.943,StroopTask,2022.2.4,None,
XXXXX,green,2.0,s,1,12,36,17,,,101.06717766588554,101.06717766588554,s,1,0.799553875811398,,001,Jovanatrejo,2022-10-27_15h54.47.943,StroopTask,2022.2.4,None,
XXXX,red,2.0,a,1,13,37,12,,,102.36739566596225,102.36739566596225,a,1,0.9752695839852095,,001,Jovanatrejo,2022-10-27_15h54.47.943,StroopTask,2022.2.4,None,
XXXXX,yellow,2.0,d,1,14,38,18,,,103.85067416587844,103.85067416587844,d,1,0.8557663338724524,,001,Jovanatrejo,2022-10-27_15h54.47.943,StroopTask,2022.2.4,None,
XXX,yellow,2.0,d,1,15,39,10,,,105.21708916593343,105.21708916593343,d,1,0.9522638749331236,,001,Jovanatrejo,2022-10-27_15h54.47.943,StroopTask,2022.2.4,None,
verde,yellow,0.0,d,1,16,40,5,,,106.68404595786706,106.68404595786706,d,1,0.9816178339533508,,001,Jovanatrejo,2022-10-27_15h54.47.943,StroopTask,2022.2.4,None,
amarillo,red,0.0,a,1,17,41,6,,,108.16728008305654,108.16728008305654,a,1,0.9642337090335786,,001,Jovanatrejo,2022-10-27_15h54.47.943,StroopTask,2022.2.4,None,
azul,blue,1.0,f,1,18,42,3,,,109.65072691603564,109.65072691603564,f,1,0.8584248339757323,,001,Jovanatrejo,2022-10-27_15h54.47.943,StroopTask,2022.2.4,None,
verde,green,1.0,s,1,19,43,1,,,111.0173256660346,111.0173256660346,s,1,0.9141064998693764,,001,Jovanatrejo,2022-10-27_15h54.47.943,StroopTask,2022.2.4,None,
XXXXXX,green,2.0,s,1,20,44,21,,,112.43402279098518,112.43402279098518,s,1,0.8748637919779867,,001,Jovanatrejo,2022-10-27_15h54.47.943,StroopTask,2022.2.4,None,
amarillo,yellow,1.0,d,1,21,45,2,,,113.81753345788456,113.81753345788456,d,1,0.9968481250107288,,001,Jovanatrejo,2022-10-27_15h54.47.943,StroopTask,2022.2.4,None,
XXXXXX,yellow,2.0,d,1,22,46,22,,,115.31725670793094,115.31725670793094,d,1,0.8207894170191139,,001,Jovanatrejo,2022-10-27_15h54.47.943,StroopTask,2022.2.4,None,
XXXX,blue,2.0,f,1,23,47,15,,,116.65020266594365,116.65020266594365,f,1,0.7984730841126293,,001,Jovanatrejo,2022-10-27_15h54.47.943,StroopTask,2022.2.4,None,
,,,,,,,,,,,,,,,117.47704162495211,,,,,,,
