word,colour,congruent,corrAns,trials.thisRepN,trials.thisTrialN,trials.thisN,trials.thisIndex,instruText.started,key_resp_2.started,target.started,response.started,response.keys,response.corr,response.rt,text.started,session,participant,date,expName,psychopyVersion,frameRate,
XXXXX,yellow,2.0,d,0,0,0,18,13.879334333119914,13.879334333119914,34.07899025012739,34.07899025012739,d,1,0.8966685838531703,,001,Monica,2022-10-27_14h32.01.251,StroopTask,2022.2.4,None,
XXX,green,2.0,s,0,1,1,9,,,35.483300500083715,35.483300500083715,s,1,0.7901805827859789,,001,Monica,2022-10-27_14h32.01.251,StroopTask,2022.2.4,None,
XXX,blue,2.0,f,0,2,2,11,,,36.79971679113805,36.79971679113805,f,1,0.721746833762154,,001,Monica,2022-10-27_14h32.01.251,StroopTask,2022.2.4,None,
azul,blue,0.0,f,0,3,3,7,,,38.045645375037566,38.045645375037566,f,1,0.64982520788908,,001,Monica,2022-10-27_14h32.01.251,StroopTask,2022.2.4,None,
XXXXXX,yellow,2.0,d,0,4,4,22,,,39.21647808304988,39.21647808304988,d,1,0.9712076247669756,,001,Monica,2022-10-27_14h32.01.251,StroopTask,2022.2.4,None,
XXXXX,blue,2.0,f,0,5,5,19,,,40.712263124994934,40.712263124994934,f,1,1.0093979588709772,,001,Monica,2022-10-27_14h32.01.251,StroopTask,2022.2.4,None,
XXXXXX,red,2.0,a,0,6,6,20,,,42.245471250033006,42.245471250033006,a,1,0.805847791954875,,001,Monica,2022-10-27_14h32.01.251,StroopTask,2022.2.4,None,
XXX,yellow,2.0,d,0,7,7,10,,,43.57873108307831,43.57873108307831,d,1,0.9176410418003798,,001,Monica,2022-10-27_14h32.01.251,StroopTask,2022.2.4,None,
XXXX,green,2.0,s,0,8,8,13,,,45.01618129108101,45.01618129108101,s,1,0.7184227916877717,,001,Monica,2022-10-27_14h32.01.251,StroopTask,2022.2.4,None,
XXXXXX,green,2.0,s,0,9,9,21,,,46.26634829095565,46.26634829095565,s,1,0.506128333741799,,001,Monica,2022-10-27_14h32.01.251,StroopTask,2022.2.4,None,
XXXXXX,blue,2.0,f,0,10,10,23,,,47.28326016617939,47.28326016617939,f,1,0.7557488337624818,,001,Monica,2022-10-27_14h32.01.251,StroopTask,2022.2.4,None,
XXXX,red,2.0,a,0,11,11,12,,,48.55027554114349,48.55027554114349,a,1,0.7003466668538749,,001,Monica,2022-10-27_14h32.01.251,StroopTask,2022.2.4,None,
XXXXX,red,2.0,a,0,12,12,16,,,49.77846008306369,49.77846008306369,a,1,0.49571037595160306,,001,Monica,2022-10-27_14h32.01.251,StroopTask,2022.2.4,None,
amarillo,yellow,1.0,d,0,13,13,2,,,50.79746679100208,50.79746679100208,d,1,1.5371132500004023,,001,Monica,2022-10-27_14h32.01.251,StroopTask,2022.2.4,None,
XXXX,yellow,2.0,d,0,14,14,14,,,52.865724000148475,52.865724000148475,d,1,0.5568155830260366,,001,Monica,2022-10-27_14h32.01.251,StroopTask,2022.2.4,None,
verde,green,1.0,s,0,15,15,1,,,53.94905575015582,53.94905575015582,s,1,0.6437595419120044,,001,Monica,2022-10-27_14h32.01.251,StroopTask,2022.2.4,None,
azul,blue,1.0,f,0,16,16,3,,,55.0988342911005,55.0988342911005,f,1,0.6277362087275833,,001,Monica,2022-10-27_14h32.01.251,StroopTask,2022.2.4,None,
XXXX,blue,2.0,f,0,17,17,15,,,56.232250957982615,56.232250957982615,f,1,0.5514229168184102,,001,Monica,2022-10-27_14h32.01.251,StroopTask,2022.2.4,None,
amarillo,red,0.0,a,0,18,18,6,,,57.29889041604474,57.29889041604474,a,1,2.2489096249919385,,001,Monica,2022-10-27_14h32.01.251,StroopTask,2022.2.4,None,
rojo,red,1.0,a,0,19,19,0,,,60.06148083298467,60.06148083298467,a,1,0.8499001248273998,,001,Monica,2022-10-27_14h32.01.251,StroopTask,2022.2.4,None,
XXX,red,2.0,a,0,20,20,8,,,61.43168058316223,61.43168058316223,a,1,0.7228289998602122,,001,Monica,2022-10-27_14h32.01.251,StroopTask,2022.2.4,None,
verde,yellow,0.0,d,0,21,21,5,,,62.678051291033626,62.678051291033626,d,1,1.397441916866228,,001,Monica,2022-10-27_14h32.01.251,StroopTask,2022.2.4,None,
rojo,green,0.0,s,0,22,22,4,,,64.58078045817092,64.58078045817092,a,0,0.903741791844368,,001,Monica,2022-10-27_14h32.01.251,StroopTask,2022.2.4,None,
XXXXX,green,2.0,s,0,23,23,17,,,66.01119233295321,66.01119233295321,s,1,1.0673976249527186,,001,Monica,2022-10-27_14h32.01.251,StroopTask,2022.2.4,None,
XXXX,yellow,2.0,d,1,0,24,14,,,67.61106533301063,67.61106533301063,d,1,0.75210687587969,,001,Monica,2022-10-27_14h32.01.251,StroopTask,2022.2.4,None,
rojo,red,1.0,a,1,1,25,0,,,68.87754670809954,68.87754670809954,a,1,1.0495112496428192,,001,Monica,2022-10-27_14h32.01.251,StroopTask,2022.2.4,None,
amarillo,yellow,1.0,d,1,2,26,2,,,70.42776641598903,70.42776641598903,d,1,0.7439892918337137,,001,Monica,2022-10-27_14h32.01.251,StroopTask,2022.2.4,None,
XXXXX,green,2.0,s,1,3,27,17,,,71.69412258313969,71.69412258313969,s,1,0.7955603748559952,,001,Monica,2022-10-27_14h32.01.251,StroopTask,2022.2.4,None,
rojo,green,0.0,s,1,4,28,4,,,72.99840883305296,72.99840883305296,s,1,1.4792358337435871,,001,Monica,2022-10-27_14h32.01.251,StroopTask,2022.2.4,None,
XXXXXX,blue,2.0,f,1,5,29,23,,,74.99826479097828,74.99826479097828,f,1,0.8153454167768359,,001,Monica,2022-10-27_14h32.01.251,StroopTask,2022.2.4,None,
XXXXX,yellow,2.0,d,1,6,30,18,,,76.31050329096615,76.31050329096615,d,1,0.7635351258795708,,001,Monica,2022-10-27_14h32.01.251,StroopTask,2022.2.4,None,
XXXX,red,2.0,a,1,7,31,12,,,77.59795866603963,77.59795866603963,a,1,0.7849687086418271,,001,Monica,2022-10-27_14h32.01.251,StroopTask,2022.2.4,None,
XXXXXX,red,2.0,a,1,8,32,20,,,78.89369370811619,78.89369370811619,a,1,0.6632399586960673,,001,Monica,2022-10-27_14h32.01.251,StroopTask,2022.2.4,None,
verde,yellow,0.0,d,1,9,33,5,,,80.06450937502086,80.06450937502086,d,1,1.415059874765575,,001,Monica,2022-10-27_14h32.01.251,StroopTask,2022.2.4,None,
XXXXXX,yellow,2.0,d,1,10,34,22,,,81.99767662514932,81.99767662514932,d,1,0.5193977078888565,,001,Monica,2022-10-27_14h32.01.251,StroopTask,2022.2.4,None,
XXXXX,red,2.0,a,1,11,35,16,,,83.04397045797668,83.04397045797668,a,1,0.9240524580236524,,001,Monica,2022-10-27_14h32.01.251,StroopTask,2022.2.4,None,
XXXXXX,green,2.0,s,1,12,36,21,,,84.48145275004208,84.48145275004208,s,1,0.760407208930701,,001,Monica,2022-10-27_14h32.01.251,StroopTask,2022.2.4,None,
verde,green,1.0,s,1,13,37,1,,,85.74783445801586,85.74783445801586,s,1,1.3052676666993648,,001,Monica,2022-10-27_14h32.01.251,StroopTask,2022.2.4,None,
XXX,green,2.0,s,1,14,38,9,,,87.58143150014803,87.58143150014803,s,1,0.5847299166489393,,001,Monica,2022-10-27_14h32.01.251,StroopTask,2022.2.4,None,
amarillo,red,0.0,a,1,15,39,6,,,88.69365762500092,88.69365762500092,d,0,0.7737019576597959,,001,Monica,2022-10-27_14h32.01.251,StroopTask,2022.2.4,None,
XXX,yellow,2.0,d,1,16,40,10,,,89.99663754110225,89.99663754110225,d,1,0.689517333637923,,001,Monica,2022-10-27_14h32.01.251,StroopTask,2022.2.4,None,
XXXX,blue,2.0,f,1,17,41,15,,,91.19746770802885,91.19746770802885,f,1,0.7458132498431951,,001,Monica,2022-10-27_14h32.01.251,StroopTask,2022.2.4,None,
XXX,blue,2.0,f,1,18,42,11,,,92.46407316601835,92.46407316601835,f,1,0.6353923338465393,,001,Monica,2022-10-27_14h32.01.251,StroopTask,2022.2.4,None,
XXX,red,2.0,a,1,19,43,8,,,93.61000712495297,93.61000712495297,a,1,0.7015325417742133,,001,Monica,2022-10-27_14h32.01.251,StroopTask,2022.2.4,None,
azul,blue,0.0,f,1,20,44,7,,,94.82694562501274,94.82694562501274,f,1,1.1794600007124245,,001,Monica,2022-10-27_14h32.01.251,StroopTask,2022.2.4,None,
XXXX,green,2.0,s,1,21,45,13,,,96.5307602910325,96.5307602910325,s,1,0.8759670418221503,,001,Monica,2022-10-27_14h32.01.251,StroopTask,2022.2.4,None,
XXXXX,blue,2.0,f,1,22,46,19,,,97.93078687507659,97.93078687507659,f,1,0.7293391670100391,,001,Monica,2022-10-27_14h32.01.251,StroopTask,2022.2.4,None,
azul,blue,1.0,f,1,23,47,3,,,99.18058850010857,99.18058850010857,f,1,0.7523727498482913,,001,Monica,2022-10-27_14h32.01.251,StroopTask,2022.2.4,None,
,,,,,,,,,,,,,,,99.98682104097679,,,,,,,
