stimulus_prac1,corrAns_prac1,stimulus_test1,corrAns_test1,stimulus_test2,corrAns_test2,prac_trials.thisRepN,prac_trials.thisTrialN,prac_trials.thisN,prac_trials.thisIndex,test1trial.thisRepN,test1trial.thisTrialN,test1trial.thisN,test1trial.thisIndex,test2trial.thisRepN,test2trial.thisTrialN,test2trial.thisN,test2trial.thisIndex,image_welcome.started,resp_Welcome.started,resp_Welcome.keys,resp_Welcome.rt,resp_Instr_Intro.started,image_Instr_Intro.started,resp_Instr_Intro.keys,resp_Instr_Intro.rt,resp_Instr_Prac1.started,image_Instr_Prac1.started,resp_Instr_Prac1.keys,resp_Instr_Prac1.rt,text_trial_Prac1.started,resp_trial_Prac1.started,text_trial_Prac1.stopped,resp_trial_Prac1.keys,resp_trial_Prac1.corr,text_Feedback_Prac1.started,resp_trial_Prac1.rt,resp_Instr_Test1.started,image_Instr_Test1.started,resp_Instr_Test1.keys,resp_Instr_Test1.rt,text_trial_Test1.started,resp_trial_Test1.started,text_trial_Test1.stopped,resp_trial_Test1.keys,resp_trial_Test1.corr,resp_trial_Test1.rt,resp_Instr_Test2.started,image_Instr_Test2.started,resp_Instr_Test2.keys,resp_Instr_Test2.rt,text_trial_Test2.started,key_resp.started,text_trial_Test2.stopped,key_resp.keys,key_resp.corr,key_resp.rt,key_resp.stopped,resp_theEnd.started,image_theEnd.started,resp_theEnd.keys,resp_theEnd.rt,participant,session,date,expName,psychopyVersion,frameRate,
,,,,,,,,,,,,,,,,,,10.553460041999642,10.553460041999642,space,102.57621345799635,,,,,,,,,,,,,,,,,,,,,,,,,,,,,,,,,,,,,,,,,Dulce2,001,2022-11-05_13h58.28.996,Trial go no go,2022.2.4,60.07366521189869,
,,,,,,,,,,,,,,,,,,,,,,113.16046066700073,113.66409700000077,space,31.720315458995174,,,,,,,,,,,,,,,,,,,,,,,,,,,,,,,,,,,,,Dulce2,001,2022-11-05_13h58.28.996,Trial go no go,2022.2.4,60.07366521189869,
,,,,,,,,,,,,,,,,,,,,,,,,,,144.90573970900004,145.39847891700265,space,2.4948260839955765,,,,,,,,,,,,,,,,,,,,,,,,,,,,,,,,,Dulce2,001,2022-11-05_13h58.28.996,Trial go no go,2022.2.4,60.07366521189869,
V,none,,,,,0,0,0,9,,,,,,,,,,,,,,,,,,,,,147.4909450840023,147.4909450840023,148.09808604200225,None,1,149.44895770900257,,,,,,,,,,,,,,,,,,,,,,,,,,,Dulce2,001,2022-11-05_13h58.28.996,Trial go no go,2022.2.4,60.07366521189869,
X,space,,,,,0,1,1,6,,,,,,,,,,,,,,,,,,,,,150.14819383400027,150.14819383400027,150.74848000000202,space,1,152.14847200000077,0.5089095419971272,,,,,,,,,,,,,,,,,,,,,,,,,,Dulce2,001,2022-11-05_13h58.28.996,Trial go no go,2022.2.4,60.07366521189869,
X,space,,,,,0,2,2,12,,,,,,,,,,,,,,,,,,,,,152.84889216699958,152.84889216699958,153.4493472920003,space,1,154.84863958400092,0.5818224169997848,,,,,,,,,,,,,,,,,,,,,,,,,,Dulce2,001,2022-11-05_13h58.28.996,Trial go no go,2022.2.4,60.07366521189869,
X,space,,,,,0,3,3,5,,,,,,,,,,,,,,,,,,,,,155.54843879200052,155.54843879200052,156.14885962500193,space,1,157.54855366700212,0.46252858299703803,,,,,,,,,,,,,,,,,,,,,,,,,,Dulce2,001,2022-11-05_13h58.28.996,Trial go no go,2022.2.4,60.07366521189869,
X,space,,,,,0,4,4,7,,,,,,,,,,,,,,,,,,,,,158.24828337500003,158.24828337500003,158.84879758399984,space,1,160.24891404200025,0.6424425419972977,,,,,,,,,,,,,,,,,,,,,,,,,,Dulce2,001,2022-11-05_13h58.28.996,Trial go no go,2022.2.4,60.07366521189869,
X,space,,,,,0,5,5,8,,,,,,,,,,,,,,,,,,,,,160.94857083399984,160.94857083399984,161.54913916700025,space,1,162.9488210840027,0.4958273749980435,,,,,,,,,,,,,,,,,,,,,,,,,,Dulce2,001,2022-11-05_13h58.28.996,Trial go no go,2022.2.4,60.07366521189869,
X,space,,,,,0,6,6,10,,,,,,,,,,,,,,,,,,,,,163.64888062500177,163.64888062500177,164.24854791700272,space,1,165.64883825000288,0.40028829099901486,,,,,,,,,,,,,,,,,,,,,,,,,,Dulce2,001,2022-11-05_13h58.28.996,Trial go no go,2022.2.4,60.07366521189869,
X,space,,,,,0,7,7,2,,,,,,,,,,,,,,,,,,,,,166.3491549169994,166.3491549169994,166.94872095900064,space,1,168.34861487500166,0.3961777499971504,,,,,,,,,,,,,,,,,,,,,,,,,,Dulce2,001,2022-11-05_13h58.28.996,Trial go no go,2022.2.4,60.07366521189869,
X,space,,,,,0,8,8,1,,,,,,,,,,,,,,,,,,,,,169.0492386670012,169.0492386670012,169.64918166700227,space,1,171.04915429200264,0.47536762500021723,,,,,,,,,,,,,,,,,,,,,,,,,,Dulce2,001,2022-11-05_13h58.28.996,Trial go no go,2022.2.4,60.07366521189869,
X,space,,,,,0,9,9,0,,,,,,,,,,,,,,,,,,,,,171.7489605840019,171.7489605840019,172.3496374589995,space,1,173.74897679200149,0.4933890829961456,,,,,,,,,,,,,,,,,,,,,,,,,,Dulce2,001,2022-11-05_13h58.28.996,Trial go no go,2022.2.4,60.07366521189869,
X,space,,,,,0,10,10,13,,,,,,,,,,,,,,,,,,,,,174.44931116700172,174.44931116700172,175.04888487500284,space,1,176.4489945000023,0.6786645839965786,,,,,,,,,,,,,,,,,,,,,,,,,,Dulce2,001,2022-11-05_13h58.28.996,Trial go no go,2022.2.4,60.07366521189869,
K,none,,,,,0,11,11,14,,,,,,,,,,,,,,,,,,,,,177.14929629200196,177.14929629200196,177.74900087500282,None,1,179.14937229200223,,,,,,,,,,,,,,,,,,,,,,,,,,,Dulce2,001,2022-11-05_13h58.28.996,Trial go no go,2022.2.4,60.07366521189869,
X,space,,,,,0,12,12,11,,,,,,,,,,,,,,,,,,,,,179.84938579200025,179.84938579200025,180.4489599590015,space,1,181.8500665419997,0.5458272919968294,,,,,,,,,,,,,,,,,,,,,,,,,,Dulce2,001,2022-11-05_13h58.28.996,Trial go no go,2022.2.4,60.07366521189869,
W,none,,,,,0,13,13,4,,,,,,,,,,,,,,,,,,,,,182.54968195900074,182.54968195900074,183.1492387920007,None,1,184.5492074169997,,,,,,,,,,,,,,,,,,,,,,,,,,,Dulce2,001,2022-11-05_13h58.28.996,Trial go no go,2022.2.4,60.07366521189869,
X,space,,,,,0,14,14,3,,,,,,,,,,,,,,,,,,,,,185.24922525000147,185.24922525000147,185.84965775000092,space,1,187.24920125000062,0.5113097499997821,,,,,,,,,,,,,,,,,,,,,,,,,,Dulce2,001,2022-11-05_13h58.28.996,Trial go no go,2022.2.4,60.07366521189869,
,,,,,,,,,,,,,,,,,,,,,,,,,,,,,,,,,,,,,187.94935241700296,188.41596600000048,space,9.238604250000208,,,,,,,,,,,,,,,,,,,,,,Dulce2,001,2022-11-05_13h58.28.996,Trial go no go,2022.2.4,60.07366521189869,
,,X,space,,,,,,,0,0,0,16,,,,,,,,,,,,,,,,,,,,,,,,,,,,197.22952650000298,197.22952650000298,197.53322004200163,space,1,0.46946558299896424,,,,,,,,,,,,,,,,Dulce2,001,2022-11-05_13h58.28.996,Trial go no go,2022.2.4,60.07366521189869,
,,M,none,,,,,,,0,1,1,39,,,,,,,,,,,,,,,,,,,,,,,,,,,,198.2326919590014,198.2326919590014,198.5330817920003,None,1,,,,,,,,,,,,,,,,,Dulce2,001,2022-11-05_13h58.28.996,Trial go no go,2022.2.4,60.07366521189869,
,,X,space,,,,,,,0,2,2,2,,,,,,,,,,,,,,,,,,,,,,,,,,,,199.23302345900083,199.23302345900083,199.53331550000075,space,1,0.4186228750004375,,,,,,,,,,,,,,,,Dulce2,001,2022-11-05_13h58.28.996,Trial go no go,2022.2.4,60.07366521189869,
,,X,space,,,,,,,0,3,3,27,,,,,,,,,,,,,,,,,,,,,,,,,,,,200.23318708400257,200.23318708400257,200.5338900420029,space,1,0.28231654099727166,,,,,,,,,,,,,,,,Dulce2,001,2022-11-05_13h58.28.996,Trial go no go,2022.2.4,60.07366521189869,
,,X,space,,,,,,,0,4,4,30,,,,,,,,,,,,,,,,,,,,,,,,,,,,201.23299008400136,201.23299008400136,201.53298450000148,space,1,0.31569191699963994,,,,,,,,,,,,,,,,Dulce2,001,2022-11-05_13h58.28.996,Trial go no go,2022.2.4,60.07366521189869,
,,X,space,,,,,,,0,5,5,31,,,,,,,,,,,,,,,,,,,,,,,,,,,,202.23303529199984,202.23303529199984,202.5330488340005,space,1,0.25543979199937894,,,,,,,,,,,,,,,,Dulce2,001,2022-11-05_13h58.28.996,Trial go no go,2022.2.4,60.07366521189869,
,,N,none,,,,,,,0,6,6,34,,,,,,,,,,,,,,,,,,,,,,,,,,,,203.23329183399983,203.23329183399983,203.53316500000074,space,0,0.2688635839986091,,,,,,,,,,,,,,,,Dulce2,001,2022-11-05_13h58.28.996,Trial go no go,2022.2.4,60.07366521189869,
,,X,space,,,,,,,0,7,7,13,,,,,,,,,,,,,,,,,,,,,,,,,,,,204.2330960420004,204.2330960420004,204.53305433400237,space,1,0.44503466699825367,,,,,,,,,,,,,,,,Dulce2,001,2022-11-05_13h58.28.996,Trial go no go,2022.2.4,60.07366521189869,
,,W,none,,,,,,,0,8,8,9,,,,,,,,,,,,,,,,,,,,,,,,,,,,205.23342287500054,205.23342287500054,205.53301816699968,None,1,,,,,,,,,,,,,,,,,Dulce2,001,2022-11-05_13h58.28.996,Trial go no go,2022.2.4,60.07366521189869,
,,X,space,,,,,,,0,9,9,46,,,,,,,,,,,,,,,,,,,,,,,,,,,,206.2332027500015,206.2332027500015,206.5331061249999,space,1,0.3158876249981404,,,,,,,,,,,,,,,,Dulce2,001,2022-11-05_13h58.28.996,Trial go no go,2022.2.4,60.07366521189869,
,,X,space,,,,,,,0,10,10,8,,,,,,,,,,,,,,,,,,,,,,,,,,,,207.23310145900177,207.23310145900177,207.53321391700229,space,1,0.30730091700024786,,,,,,,,,,,,,,,,Dulce2,001,2022-11-05_13h58.28.996,Trial go no go,2022.2.4,60.07366521189869,
,,X,space,,,,,,,0,11,11,5,,,,,,,,,,,,,,,,,,,,,,,,,,,,208.23321033400134,208.23321033400134,208.53308095900138,space,1,0.3692602919982164,,,,,,,,,,,,,,,,Dulce2,001,2022-11-05_13h58.28.996,Trial go no go,2022.2.4,60.07366521189869,
,,X,space,,,,,,,0,12,12,42,,,,,,,,,,,,,,,,,,,,,,,,,,,,209.2332284590011,209.2332284590011,209.53382274999967,space,1,0.28849029100092594,,,,,,,,,,,,,,,,Dulce2,001,2022-11-05_13h58.28.996,Trial go no go,2022.2.4,60.07366521189869,
,,X,space,,,,,,,0,13,13,10,,,,,,,,,,,,,,,,,,,,,,,,,,,,210.2332958750012,210.2332958750012,210.5331059170021,space,1,0.3290007079995121,,,,,,,,,,,,,,,,Dulce2,001,2022-11-05_13h58.28.996,Trial go no go,2022.2.4,60.07366521189869,
,,K,none,,,,,,,0,14,14,19,,,,,,,,,,,,,,,,,,,,,,,,,,,,211.23332970900083,211.23332970900083,211.53311308400225,None,1,,,,,,,,,,,,,,,,,Dulce2,001,2022-11-05_13h58.28.996,Trial go no go,2022.2.4,60.07366521189869,
,,X,space,,,,,,,0,15,15,18,,,,,,,,,,,,,,,,,,,,,,,,,,,,212.23314191700047,212.23314191700047,212.53372641700116,space,1,0.29378320799878566,,,,,,,,,,,,,,,,Dulce2,001,2022-11-05_13h58.28.996,Trial go no go,2022.2.4,60.07366521189869,
,,X,space,,,,,,,0,16,16,38,,,,,,,,,,,,,,,,,,,,,,,,,,,,213.23342162500194,213.23342162500194,213.533542125002,space,1,0.28997387499839533,,,,,,,,,,,,,,,,Dulce2,001,2022-11-05_13h58.28.996,Trial go no go,2022.2.4,60.07366521189869,
,,X,space,,,,,,,0,17,17,40,,,,,,,,,,,,,,,,,,,,,,,,,,,,214.23342270899957,214.23342270899957,214.53444529199987,space,1,0.28533770899957744,,,,,,,,,,,,,,,,Dulce2,001,2022-11-05_13h58.28.996,Trial go no go,2022.2.4,60.07366521189869,
,,X,space,,,,,,,0,18,18,41,,,,,,,,,,,,,,,,,,,,,,,,,,,,215.23329366700273,215.23329366700273,215.53389845900165,space,1,0.2818576669997128,,,,,,,,,,,,,,,,Dulce2,001,2022-11-05_13h58.28.996,Trial go no go,2022.2.4,60.07366521189869,
,,X,space,,,,,,,0,19,19,33,,,,,,,,,,,,,,,,,,,,,,,,,,,,216.2336113340025,216.2336113340025,216.53353779200188,space,1,0.3157738749978307,,,,,,,,,,,,,,,,Dulce2,001,2022-11-05_13h58.28.996,Trial go no go,2022.2.4,60.07366521189869,
,,T,none,,,,,,,0,20,20,29,,,,,,,,,,,,,,,,,,,,,,,,,,,,217.2332798339994,217.2332798339994,217.53344925000056,None,1,,,,,,,,,,,,,,,,,Dulce2,001,2022-11-05_13h58.28.996,Trial go no go,2022.2.4,60.07366521189869,
,,X,space,,,,,,,0,21,21,17,,,,,,,,,,,,,,,,,,,,,,,,,,,,218.23367054200207,218.23367054200207,218.53342016700117,space,1,0.3027344579968485,,,,,,,,,,,,,,,,Dulce2,001,2022-11-05_13h58.28.996,Trial go no go,2022.2.4,60.07366521189869,
,,X,space,,,,,,,0,22,22,43,,,,,,,,,,,,,,,,,,,,,,,,,,,,219.23355112500212,219.23355112500212,219.5332867090001,space,1,0.2997429579954769,,,,,,,,,,,,,,,,Dulce2,001,2022-11-05_13h58.28.996,Trial go no go,2022.2.4,60.07366521189869,
,,X,space,,,,,,,0,23,23,47,,,,,,,,,,,,,,,,,,,,,,,,,,,,220.23373245900075,220.23373245900075,220.5334770840018,space,1,0.3309667499961506,,,,,,,,,,,,,,,,Dulce2,001,2022-11-05_13h58.28.996,Trial go no go,2022.2.4,60.07366521189869,
,,X,space,,,,,,,0,24,24,1,,,,,,,,,,,,,,,,,,,,,,,,,,,,221.23376641700088,221.23376641700088,221.53363600000012,space,1,0.31509587499749614,,,,,,,,,,,,,,,,Dulce2,001,2022-11-05_13h58.28.996,Trial go no go,2022.2.4,60.07366521189869,
,,X,space,,,,,,,0,25,25,23,,,,,,,,,,,,,,,,,,,,,,,,,,,,222.2335573340024,222.2335573340024,222.53381445900231,space,1,0.40964058299869066,,,,,,,,,,,,,,,,Dulce2,001,2022-11-05_13h58.28.996,Trial go no go,2022.2.4,60.07366521189869,
,,X,space,,,,,,,0,26,26,48,,,,,,,,,,,,,,,,,,,,,,,,,,,,223.23359524999978,223.23359524999978,223.53337054200165,space,1,0.3414405829971656,,,,,,,,,,,,,,,,Dulce2,001,2022-11-05_13h58.28.996,Trial go no go,2022.2.4,60.07366521189869,
,,X,space,,,,,,,0,27,27,36,,,,,,,,,,,,,,,,,,,,,,,,,,,,224.23379704200124,224.23379704200124,224.533920959002,space,1,0.33518112499950803,,,,,,,,,,,,,,,,Dulce2,001,2022-11-05_13h58.28.996,Trial go no go,2022.2.4,60.07366521189869,
,,X,space,,,,,,,0,28,28,15,,,,,,,,,,,,,,,,,,,,,,,,,,,,225.23423008400277,225.23423008400277,225.53395708400058,space,1,0.3423681249987567,,,,,,,,,,,,,,,,Dulce2,001,2022-11-05_13h58.28.996,Trial go no go,2022.2.4,60.07366521189869,
,,X,space,,,,,,,0,29,29,32,,,,,,,,,,,,,,,,,,,,,,,,,,,,226.23375916700024,226.23375916700024,226.5335493340026,space,1,0.3594399169960525,,,,,,,,,,,,,,,,Dulce2,001,2022-11-05_13h58.28.996,Trial go no go,2022.2.4,60.07366521189869,
,,V,none,,,,,,,0,30,30,4,,,,,,,,,,,,,,,,,,,,,,,,,,,,227.23335883400068,227.23335883400068,227.53368466699976,None,1,,,,,,,,,,,,,,,,,Dulce2,001,2022-11-05_13h58.28.996,Trial go no go,2022.2.4,60.07366521189869,
,,E,none,,,,,,,0,31,31,49,,,,,,,,,,,,,,,,,,,,,,,,,,,,228.23342216700257,228.23342216700257,228.53354208400197,None,1,,,,,,,,,,,,,,,,,Dulce2,001,2022-11-05_13h58.28.996,Trial go no go,2022.2.4,60.07366521189869,
,,X,space,,,,,,,0,32,32,7,,,,,,,,,,,,,,,,,,,,,,,,,,,,229.23403991700252,229.23403991700252,229.53392945900123,space,1,0.3474192909998237,,,,,,,,,,,,,,,,Dulce2,001,2022-11-05_13h58.28.996,Trial go no go,2022.2.4,60.07366521189869,
,,F,none,,,,,,,0,33,33,44,,,,,,,,,,,,,,,,,,,,,,,,,,,,230.23396262499955,230.23396262499955,230.53391066699987,None,1,,,,,,,,,,,,,,,,,Dulce2,001,2022-11-05_13h58.28.996,Trial go no go,2022.2.4,60.07366521189869,
,,X,space,,,,,,,0,34,34,28,,,,,,,,,,,,,,,,,,,,,,,,,,,,231.23364433400275,231.23364433400275,231.53358945900254,space,1,0.36280483399968944,,,,,,,,,,,,,,,,Dulce2,001,2022-11-05_13h58.28.996,Trial go no go,2022.2.4,60.07366521189869,
,,X,space,,,,,,,0,35,35,3,,,,,,,,,,,,,,,,,,,,,,,,,,,,232.23384287500085,232.23384287500085,232.5336491670023,space,1,0.3283659999979136,,,,,,,,,,,,,,,,Dulce2,001,2022-11-05_13h58.28.996,Trial go no go,2022.2.4,60.07366521189869,
,,X,space,,,,,,,0,36,36,12,,,,,,,,,,,,,,,,,,,,,,,,,,,,233.2338140840002,233.2338140840002,233.53477741700044,space,1,0.2820335829965188,,,,,,,,,,,,,,,,Dulce2,001,2022-11-05_13h58.28.996,Trial go no go,2022.2.4,60.07366521189869,
,,Y,none,,,,,,,0,37,37,14,,,,,,,,,,,,,,,,,,,,,,,,,,,,234.23411837499953,234.23411837499953,234.5344270420028,None,1,,,,,,,,,,,,,,,,,Dulce2,001,2022-11-05_13h58.28.996,Trial go no go,2022.2.4,60.07366521189869,
,,X,space,,,,,,,0,38,38,22,,,,,,,,,,,,,,,,,,,,,,,,,,,,235.23405616700256,235.23405616700256,235.53371166700163,space,1,0.4612009170014062,,,,,,,,,,,,,,,,Dulce2,001,2022-11-05_13h58.28.996,Trial go no go,2022.2.4,60.07366521189869,
,,X,space,,,,,,,0,39,39,21,,,,,,,,,,,,,,,,,,,,,,,,,,,,236.23401595900214,236.23401595900214,236.53403112500018,space,1,0.3383154579969414,,,,,,,,,,,,,,,,Dulce2,001,2022-11-05_13h58.28.996,Trial go no go,2022.2.4,60.07366521189869,
,,X,space,,,,,,,0,40,40,0,,,,,,,,,,,,,,,,,,,,,,,,,,,,237.2337815000028,237.2337815000028,237.53435591699963,space,1,0.2883456669987936,,,,,,,,,,,,,,,,Dulce2,001,2022-11-05_13h58.28.996,Trial go no go,2022.2.4,60.07366521189869,
,,X,space,,,,,,,0,41,41,20,,,,,,,,,,,,,,,,,,,,,,,,,,,,238.23397750000004,238.23397750000004,238.5344576250027,space,1,0.28883029099961277,,,,,,,,,,,,,,,,Dulce2,001,2022-11-05_13h58.28.996,Trial go no go,2022.2.4,60.07366521189869,
,,X,space,,,,,,,0,42,42,25,,,,,,,,,,,,,,,,,,,,,,,,,,,,239.2338057090019,239.2338057090019,239.5338413339996,space,1,0.3730697919963859,,,,,,,,,,,,,,,,Dulce2,001,2022-11-05_13h58.28.996,Trial go no go,2022.2.4,60.07366521189869,
,,H,none,,,,,,,0,43,43,24,,,,,,,,,,,,,,,,,,,,,,,,,,,,240.23390570899937,240.23390570899937,240.53402966700014,None,1,,,,,,,,,,,,,,,,,Dulce2,001,2022-11-05_13h58.28.996,Trial go no go,2022.2.4,60.07366521189869,
,,X,space,,,,,,,0,44,44,11,,,,,,,,,,,,,,,,,,,,,,,,,,,,241.23412520900092,241.23412520900092,241.53391479200218,space,1,0.40895991700017476,,,,,,,,,,,,,,,,Dulce2,001,2022-11-05_13h58.28.996,Trial go no go,2022.2.4,60.07366521189869,
,,X,space,,,,,,,0,45,45,26,,,,,,,,,,,,,,,,,,,,,,,,,,,,242.23406712500218,242.23406712500218,242.53459120900152,space,1,0.2934362499981944,,,,,,,,,,,,,,,,Dulce2,001,2022-11-05_13h58.28.996,Trial go no go,2022.2.4,60.07366521189869,
,,X,space,,,,,,,0,46,46,37,,,,,,,,,,,,,,,,,,,,,,,,,,,,243.23431658400295,243.23431658400295,243.5349772920017,space,1,0.27891258399540675,,,,,,,,,,,,,,,,Dulce2,001,2022-11-05_13h58.28.996,Trial go no go,2022.2.4,60.07366521189869,
,,X,space,,,,,,,0,47,47,45,,,,,,,,,,,,,,,,,,,,,,,,,,,,244.23394683399965,244.23394683399965,244.53447750000123,space,1,0.292167249997874,,,,,,,,,,,,,,,,Dulce2,001,2022-11-05_13h58.28.996,Trial go no go,2022.2.4,60.07366521189869,
,,X,space,,,,,,,0,48,48,35,,,,,,,,,,,,,,,,,,,,,,,,,,,,245.23394120900048,245.23394120900048,245.5347572089995,space,1,0.2895144169960986,,,,,,,,,,,,,,,,Dulce2,001,2022-11-05_13h58.28.996,Trial go no go,2022.2.4,60.07366521189869,
,,X,space,,,,,,,0,49,49,6,,,,,,,,,,,,,,,,,,,,,,,,,,,,246.2343601249995,246.2343601249995,246.53413300000102,space,1,0.34830912499819533,,,,,,,,,,,,,,,,Dulce2,001,2022-11-05_13h58.28.996,Trial go no go,2022.2.4,60.07366521189869,
,,,,,,,,,,,,,,,,,,,,,,,,,,,,,,,,,,,,,,,,,,,,,,,247.23405483399983,247.70100420900053,space,9.863414833995193,,,,,,,,,,,,Dulce2,001,2022-11-05_13h58.28.996,Trial go no go,2022.2.4,60.07366521189869,
,,,,K,space,,,,,,,,,0,0,0,11,,,,,,,,,,,,,,,,,,,,,,,,,,,,,,,,,,257.1310707090015,257.1310707090015,257.4342743340021,space,1,0.884531457999401,,,,,,Dulce2,001,2022-11-05_13h58.28.996,Trial go no go,2022.2.4,60.07366521189869,
,,,,K,space,,,,,,,,,0,1,1,30,,,,,,,,,,,,,,,,,,,,,,,,,,,,,,,,,,258.1354638340017,258.1354638340017,258.4342854170027,space,1,0.32999754199772724,,,,,,Dulce2,001,2022-11-05_13h58.28.996,Trial go no go,2022.2.4,60.07366521189869,
,,,,X,none,,,,,,,,,0,2,2,4,,,,,,,,,,,,,,,,,,,,,,,,,,,,,,,,,,259.1346102500029,259.1346102500029,259.43449558400243,space,0,0.274043666999205,,,,,,Dulce2,001,2022-11-05_13h58.28.996,Trial go no go,2022.2.4,60.07366521189869,
,,,,L,space,,,,,,,,,0,3,3,31,,,,,,,,,,,,,,,,,,,,,,,,,,,,,,,,,,260.1343997920012,260.1343997920012,260.43457475000105,None,0,,,,,,,Dulce2,001,2022-11-05_13h58.28.996,Trial go no go,2022.2.4,60.07366521189869,
,,,,T,space,,,,,,,,,0,4,4,22,,,,,,,,,,,,,,,,,,,,,,,,,,,,,,,,,,261.13447683400227,261.13447683400227,261.4345849170022,space,1,0.12634925000020303,,,,,,Dulce2,001,2022-11-05_13h58.28.996,Trial go no go,2022.2.4,60.07366521189869,
,,,,N,space,,,,,,,,,0,5,5,16,,,,,,,,,,,,,,,,,,,,,,,,,,,,,,,,,,262.13445587500246,262.13445587500246,262.4349926670002,space,1,0.2784442089978256,,,,,,Dulce2,001,2022-11-05_13h58.28.996,Trial go no go,2022.2.4,60.07366521189869,
,,,,X,none,,,,,,,,,0,6,6,29,,,,,,,,,,,,,,,,,,,,,,,,,,,,,,,,,,263.1345334590005,263.1345334590005,263.4346249170012,None,1,,,,,,,Dulce2,001,2022-11-05_13h58.28.996,Trial go no go,2022.2.4,60.07366521189869,
,,,,M,space,,,,,,,,,0,7,7,17,,,,,,,,,,,,,,,,,,,,,,,,,,,,,,,,,,264.13463883400254,264.13463883400254,264.43438979200073,space,1,0.23341379200064694,,,,,,Dulce2,001,2022-11-05_13h58.28.996,Trial go no go,2022.2.4,60.07366521189869,
,,,,Y,space,,,,,,,,,0,8,8,5,,,,,,,,,,,,,,,,,,,,,,,,,,,,,,,,,,265.1349107919996,265.1349107919996,265.43469658400136,space,1,0.3601389159957762,,,,,,Dulce2,001,2022-11-05_13h58.28.996,Trial go no go,2022.2.4,60.07366521189869,
,,,,H,space,,,,,,,,,0,9,9,47,,,,,,,,,,,,,,,,,,,,,,,,,,,,,,,,,,266.1347122920015,266.1347122920015,266.43449958400015,space,1,0.3568446249992121,,,,,,Dulce2,001,2022-11-05_13h58.28.996,Trial go no go,2022.2.4,60.07366521189869,
,,,,R,space,,,,,,,,,0,10,10,21,,,,,,,,,,,,,,,,,,,,,,,,,,,,,,,,,,267.134977042002,267.134977042002,267.4349042089998,space,1,0.31640374999915366,,,,,,Dulce2,001,2022-11-05_13h58.28.996,Trial go no go,2022.2.4,60.07366521189869,
,,,,A,space,,,,,,,,,0,11,11,45,,,,,,,,,,,,,,,,,,,,,,,,,,,,,,,,,,268.13477754199994,268.13477754199994,268.43465537500015,space,1,0.3683622499993362,,,,,,Dulce2,001,2022-11-05_13h58.28.996,Trial go no go,2022.2.4,60.07366521189869,
,,,,I,space,,,,,,,,,0,12,12,6,,,,,,,,,,,,,,,,,,,,,,,,,,,,,,,,,,269.13508370899945,269.13508370899945,269.4346447500029,space,1,0.3697509999983595,,,,,,Dulce2,001,2022-11-05_13h58.28.996,Trial go no go,2022.2.4,60.07366521189869,
,,,,T,space,,,,,,,,,0,13,13,41,,,,,,,,,,,,,,,,,,,,,,,,,,,,,,,,,,270.13468791700143,270.13468791700143,270.4344684589996,space,1,0.3321219999961613,,,,,,Dulce2,001,2022-11-05_13h58.28.996,Trial go no go,2022.2.4,60.07366521189869,
,,,,H,space,,,,,,,,,0,14,14,28,,,,,,,,,,,,,,,,,,,,,,,,,,,,,,,,,,271.1352426250014,271.1352426250014,271.43549625000014,space,1,0.32435770799565944,,,,,,Dulce2,001,2022-11-05_13h58.28.996,Trial go no go,2022.2.4,60.07366521189869,
,,,,L,space,,,,,,,,,0,15,15,12,,,,,,,,,,,,,,,,,,,,,,,,,,,,,,,,,,272.1346920420001,272.1346920420001,272.43476875000124,space,1,0.2676847499969881,,,,,,Dulce2,001,2022-11-05_13h58.28.996,Trial go no go,2022.2.4,60.07366521189869,
,,,,X,none,,,,,,,,,0,16,16,24,,,,,,,,,,,,,,,,,,,,,,,,,,,,,,,,,,273.1349460840029,273.1349460840029,273.4351332920014,None,1,,,,,,,Dulce2,001,2022-11-05_13h58.28.996,Trial go no go,2022.2.4,60.07366521189869,
,,,,F,space,,,,,,,,,0,17,17,8,,,,,,,,,,,,,,,,,,,,,,,,,,,,,,,,,,274.1357243750026,274.1357243750026,274.43479920900063,space,1,0.30121904199768323,,,,,,Dulce2,001,2022-11-05_13h58.28.996,Trial go no go,2022.2.4,60.07366521189869,
,,,,I,space,,,,,,,,,0,18,18,25,,,,,,,,,,,,,,,,,,,,,,,,,,,,,,,,,,275.1351189170018,275.1351189170018,275.435020334,space,1,0.4511447499971837,,,,,,Dulce2,001,2022-11-05_13h58.28.996,Trial go no go,2022.2.4,60.07366521189869,
,,,,X,none,,,,,,,,,0,19,19,9,,,,,,,,,,,,,,,,,,,,,,,,,,,,,,,,,,276.13503004200174,276.13503004200174,276.43553366700144,space,0,0.2934041249973234,,,,,,Dulce2,001,2022-11-05_13h58.28.996,Trial go no go,2022.2.4,60.07366521189869,
,,,,F,space,,,,,,,,,0,20,20,46,,,,,,,,,,,,,,,,,,,,,,,,,,,,,,,,,,277.13516775000244,277.13516775000244,277.4351114170022,space,1,0.2500275419988611,,,,,,Dulce2,001,2022-11-05_13h58.28.996,Trial go no go,2022.2.4,60.07366521189869,
,,,,Y,space,,,,,,,,,0,21,21,23,,,,,,,,,,,,,,,,,,,,,,,,,,,,,,,,,,278.1354726250029,278.1354726250029,278.4356792090002,space,1,0.30133508300059475,,,,,,Dulce2,001,2022-11-05_13h58.28.996,Trial go no go,2022.2.4,60.07366521189869,
,,,,A,space,,,,,,,,,0,22,22,7,,,,,,,,,,,,,,,,,,,,,,,,,,,,,,,,,,279.13562291700146,279.13562291700146,279.4361360420007,space,1,0.28354433400090784,,,,,,Dulce2,001,2022-11-05_13h58.28.996,Trial go no go,2022.2.4,60.07366521189869,
,,,,V,space,,,,,,,,,0,23,23,15,,,,,,,,,,,,,,,,,,,,,,,,,,,,,,,,,,280.13527966699985,280.13527966699985,280.4352268750008,space,1,0.22746937499687192,,,,,,Dulce2,001,2022-11-05_13h58.28.996,Trial go no go,2022.2.4,60.07366521189869,
,,,,X,none,,,,,,,,,0,24,24,39,,,,,,,,,,,,,,,,,,,,,,,,,,,,,,,,,,281.135212125002,281.135212125002,281.4350737090026,None,1,,,,,,,Dulce2,001,2022-11-05_13h58.28.996,Trial go no go,2022.2.4,60.07366521189869,
,,,,X,none,,,,,,,,,0,25,25,19,,,,,,,,,,,,,,,,,,,,,,,,,,,,,,,,,,282.1353921250011,282.1353921250011,282.4351386670023,space,0,0.26830579199668136,,,,,,Dulce2,001,2022-11-05_13h58.28.996,Trial go no go,2022.2.4,60.07366521189869,
,,,,X,none,,,,,,,,,0,26,26,14,,,,,,,,,,,,,,,,,,,,,,,,,,,,,,,,,,283.13517499999944,283.13517499999944,283.4354454170025,None,1,,,,,,,Dulce2,001,2022-11-05_13h58.28.996,Trial go no go,2022.2.4,60.07366521189869,
,,,,K,space,,,,,,,,,0,27,27,48,,,,,,,,,,,,,,,,,,,,,,,,,,,,,,,,,,284.1357263339996,284.1357263339996,284.43503033399975,space,1,0.3920563329993456,,,,,,Dulce2,001,2022-11-05_13h58.28.996,Trial go no go,2022.2.4,60.07366521189869,
,,,,R,space,,,,,,,,,0,28,28,40,,,,,,,,,,,,,,,,,,,,,,,,,,,,,,,,,,285.1353356670006,285.1353356670006,285.4353017499998,space,1,0.38641849999839906,,,,,,Dulce2,001,2022-11-05_13h58.28.996,Trial go no go,2022.2.4,60.07366521189869,
,,,,M,space,,,,,,,,,0,29,29,36,,,,,,,,,,,,,,,,,,,,,,,,,,,,,,,,,,286.1350740000016,286.1350740000016,286.4351782920021,space,1,0.45515858399812714,,,,,,Dulce2,001,2022-11-05_13h58.28.996,Trial go no go,2022.2.4,60.07366521189869,
,,,,A,space,,,,,,,,,0,30,30,26,,,,,,,,,,,,,,,,,,,,,,,,,,,,,,,,,,287.1355024170007,287.1355024170007,287.4360634170007,space,1,0.2788644169959298,,,,,,Dulce2,001,2022-11-05_13h58.28.996,Trial go no go,2022.2.4,60.07366521189869,
,,,,H,space,,,,,,,,,0,31,31,10,,,,,,,,,,,,,,,,,,,,,,,,,,,,,,,,,,288.1351581250019,288.1351581250019,288.43511641700024,space,1,0.26632579199940665,,,,,,Dulce2,001,2022-11-05_13h58.28.996,Trial go no go,2022.2.4,60.07366521189869,
,,,,X,none,,,,,,,,,0,32,32,49,,,,,,,,,,,,,,,,,,,,,,,,,,,,,,,,,,289.1188496249997,289.1188496249997,289.4183519590006,None,1,,290.1189129170016,,,,,Dulce2,001,2022-11-05_13h58.28.996,Trial go no go,2022.2.4,60.07366521189869,
,,,,I,space,,,,,,,,,0,33,33,43,,,,,,,,,,,,,,,,,,,,,,,,,,,,,,,,,,290.1189129170016,290.1189129170016,290.41889854200053,space,1,0.35468233399660676,291.11858995900184,,,,,Dulce2,001,2022-11-05_13h58.28.996,Trial go no go,2022.2.4,60.07366521189869,
,,,,T,space,,,,,,,,,0,34,34,3,,,,,,,,,,,,,,,,,,,,,,,,,,,,,,,,,,291.11858995900184,291.11858995900184,291.4190797090014,space,1,0.36268824999933713,292.1186307090029,,,,,Dulce2,001,2022-11-05_13h58.28.996,Trial go no go,2022.2.4,60.07366521189869,
,,,,W,space,,,,,,,,,0,35,35,0,,,,,,,,,,,,,,,,,,,,,,,,,,,,,,,,,,292.1186307090029,292.1186307090029,292.41867141700277,space,1,0.42195224999886705,293.1189211250021,,,,,Dulce2,001,2022-11-05_13h58.28.996,Trial go no go,2022.2.4,60.07366521189869,
,,,,Z,space,,,,,,,,,0,36,36,32,,,,,,,,,,,,,,,,,,,,,,,,,,,,,,,,,,293.1189211250021,293.1189211250021,293.4186037090003,space,1,0.35055450000072597,294.1191909170011,,,,,Dulce2,001,2022-11-05_13h58.28.996,Trial go no go,2022.2.4,60.07366521189869,
,,,,E,space,,,,,,,,,0,37,37,20,,,,,,,,,,,,,,,,,,,,,,,,,,,,,,,,,,294.1191909170011,294.1191909170011,294.4186764590013,space,1,0.32434920800005784,295.1185991250022,,,,,Dulce2,001,2022-11-05_13h58.28.996,Trial go no go,2022.2.4,60.07366521189869,
,,,,X,none,,,,,,,,,0,38,38,34,,,,,,,,,,,,,,,,,,,,,,,,,,,,,,,,,,295.1185991250022,295.1185991250022,295.4185764590002,None,1,,296.1192522500023,,,,,Dulce2,001,2022-11-05_13h58.28.996,Trial go no go,2022.2.4,60.07366521189869,
,,,,Z,space,,,,,,,,,0,39,39,13,,,,,,,,,,,,,,,,,,,,,,,,,,,,,,,,,,296.1192522500023,296.1192522500023,296.41907687500134,space,1,0.2732264580008632,,,,,,Dulce2,001,2022-11-05_13h58.28.996,Trial go no go,2022.2.4,60.07366521189869,
,,,,N,space,,,,,,,,,0,40,40,35,,,,,,,,,,,,,,,,,,,,,,,,,,,,,,,,,,297.1187500420019,297.1187500420019,297.41878266700223,space,1,0.30394662500111735,,,,,,Dulce2,001,2022-11-05_13h58.28.996,Trial go no go,2022.2.4,60.07366521189869,
,,,,E,space,,,,,,,,,0,41,41,38,,,,,,,,,,,,,,,,,,,,,,,,,,,,,,,,,,298.1191519590029,298.1191519590029,298.41866366700197,space,1,0.31496437499663443,,,,,,Dulce2,001,2022-11-05_13h58.28.996,Trial go no go,2022.2.4,60.07366521189869,
,,,,F,space,,,,,,,,,0,42,42,27,,,,,,,,,,,,,,,,,,,,,,,,,,,,,,,,,,299.1191260420019,299.1191260420019,299.418963125001,space,1,0.3458392089996778,300.11875570900156,,,,,Dulce2,001,2022-11-05_13h58.28.996,Trial go no go,2022.2.4,60.07366521189869,
,,,,W,space,,,,,,,,,0,43,43,18,,,,,,,,,,,,,,,,,,,,,,,,,,,,,,,,,,300.11875570900156,300.11875570900156,300.4192275420028,space,1,0.3184327499984647,301.11880287500026,,,,,Dulce2,001,2022-11-05_13h58.28.996,Trial go no go,2022.2.4,60.07366521189869,
,,,,R,space,,,,,,,,,0,44,44,2,,,,,,,,,,,,,,,,,,,,,,,,,,,,,,,,,,301.11880287500026,301.11880287500026,301.4189111250016,space,1,0.3348926670005312,,,,,,Dulce2,001,2022-11-05_13h58.28.996,Trial go no go,2022.2.4,60.07366521189869,
,,,,E,space,,,,,,,,,0,45,45,1,,,,,,,,,,,,,,,,,,,,,,,,,,,,,,,,,,302.11884733400075,302.11884733400075,302.4195677500029,space,1,0.2895786249973753,303.1190203340011,,,,,Dulce2,001,2022-11-05_13h58.28.996,Trial go no go,2022.2.4,60.07366521189869,
,,,,V,space,,,,,,,,,0,46,46,33,,,,,,,,,,,,,,,,,,,,,,,,,,,,,,,,,,303.1190203340011,303.1190203340011,303.41894112500086,space,1,0.27354979099618504,,,,,,Dulce2,001,2022-11-05_13h58.28.996,Trial go no go,2022.2.4,60.07366521189869,
,,,,X,none,,,,,,,,,0,47,47,44,,,,,,,,,,,,,,,,,,,,,,,,,,,,,,,,,,304.11914391699975,304.11914391699975,304.41966558400236,space,0,0.27884679199996754,305.11930195900277,,,,,Dulce2,001,2022-11-05_13h58.28.996,Trial go no go,2022.2.4,60.07366521189869,
,,,,Y,space,,,,,,,,,0,48,48,42,,,,,,,,,,,,,,,,,,,,,,,,,,,,,,,,,,305.11930195900277,305.11930195900277,305.4187926250015,space,1,0.3940081669970823,,,,,,Dulce2,001,2022-11-05_13h58.28.996,Trial go no go,2022.2.4,60.07366521189869,
,,,,W,space,,,,,,,,,0,49,49,37,,,,,,,,,,,,,,,,,,,,,,,,,,,,,,,,,,306.1194864170029,306.1194864170029,306.41924454200125,space,1,0.29126087500117137,,,,,,Dulce2,001,2022-11-05_13h58.28.996,Trial go no go,2022.2.4,60.07366521189869,
,,,,,,,,,,,,,,,,,,,,,,,,,,,,,,,,,,,,,,,,,,,,,,,,,,,,,,,,,,307.1189257090009,307.60267829200166,space,1.977876416996878,Dulce2,001,2022-11-05_13h58.28.996,Trial go no go,2022.2.4,60.07366521189869,
