stimulus_prac1,corrAns_prac1,stimulus_test1,corrAns_test1,stimulus_test2,corrAns_test2,prac_trials.thisRepN,prac_trials.thisTrialN,prac_trials.thisN,prac_trials.thisIndex,test1trial.thisRepN,test1trial.thisTrialN,test1trial.thisN,test1trial.thisIndex,test2trial.thisRepN,test2trial.thisTrialN,test2trial.thisN,test2trial.thisIndex,image_welcome.started,resp_Welcome.started,resp_Welcome.keys,resp_Welcome.rt,resp_Instr_Intro.started,image_Instr_Intro.started,resp_Instr_Intro.keys,resp_Instr_Intro.rt,resp_Instr_Prac1.started,image_Instr_Prac1.started,resp_Instr_Prac1.keys,resp_Instr_Prac1.rt,text_trial_Prac1.started,resp_trial_Prac1.started,text_trial_Prac1.stopped,resp_trial_Prac1.keys,resp_trial_Prac1.corr,text_Feedback_Prac1.started,resp_trial_Prac1.rt,resp_Instr_Test1.started,image_Instr_Test1.started,resp_Instr_Test1.keys,resp_Instr_Test1.rt,text_trial_Test1.started,resp_trial_Test1.started,text_trial_Test1.stopped,resp_trial_Test1.keys,resp_trial_Test1.corr,resp_trial_Test1.rt,resp_Instr_Test2.started,image_Instr_Test2.started,resp_Instr_Test2.keys,resp_Instr_Test2.rt,text_trial_Test2.started,key_resp.started,text_trial_Test2.stopped,key_resp.keys,key_resp.corr,key_resp.rt,key_resp.stopped,resp_theEnd.started,image_theEnd.started,resp_theEnd.keys,resp_theEnd.rt,participant,session,date,expName,psychopyVersion,frameRate,
,,,,,,,,,,,,,,,,,,9.136030917001335,9.136030917001335,space,5.172291999999288,,,,,,,,,,,,,,,,,,,,,,,,,,,,,,,,,,,,,,,,,Hiram2,001,2022-11-04_15h43.23.532,Trial go no go,2022.2.4,60.06598260146599,
,,,,,,,,,,,,,,,,,,,,,,14.32706650000182,14.825699667002482,space,1.786163498996757,,,,,,,,,,,,,,,,,,,,,,,,,,,,,,,,,,,,,Hiram2,001,2022-11-04_15h43.23.532,Trial go no go,2022.2.4,60.06598260146599,
,,,,,,,,,,,,,,,,,,,,,,,,,,16.143492334002076,16.642563166999025,space,2.733247123996989,,,,,,,,,,,,,,,,,,,,,,,,,,,,,,,,,Hiram2,001,2022-11-04_15h43.23.532,Trial go no go,2022.2.4,60.06598260146599,
X,space,,,,,0,0,0,12,,,,,,,,,,,,,,,,,,,,,18.95684454200091,18.95684454200091,19.55915887499941,None,0,20.92817054199986,,,,,,,,,,,,,,,,,,,,,,,,,,,Hiram2,001,2022-11-04_15h43.23.532,Trial go no go,2022.2.4,60.06598260146599,
X,space,,,,,0,1,1,10,,,,,,,,,,,,,,,,,,,,,21.62586179199934,21.62586179199934,22.226144750002277,space,1,23.625514792001923,0.43233512499864446,,,,,,,,,,,,,,,,,,,,,,,,,,Hiram2,001,2022-11-04_15h43.23.532,Trial go no go,2022.2.4,60.06598260146599,
X,space,,,,,0,2,2,3,,,,,,,,,,,,,,,,,,,,,24.32567787500011,24.32567787500011,24.92567395900187,space,1,26.32610104199921,0.4703242909999972,,,,,,,,,,,,,,,,,,,,,,,,,,Hiram2,001,2022-11-04_15h43.23.532,Trial go no go,2022.2.4,60.06598260146599,
X,space,,,,,0,3,3,7,,,,,,,,,,,,,,,,,,,,,27.02586770900234,27.02586770900234,27.626150209001935,space,1,29.026332125002227,0.6529223329998786,,,,,,,,,,,,,,,,,,,,,,,,,,Hiram2,001,2022-11-04_15h43.23.532,Trial go no go,2022.2.4,60.06598260146599,
X,space,,,,,0,4,4,2,,,,,,,,,,,,,,,,,,,,,29.72613654200177,29.72613654200177,30.326192374999664,space,1,31.725958917002572,0.45562929099833127,,,,,,,,,,,,,,,,,,,,,,,,,,Hiram2,001,2022-11-04_15h43.23.532,Trial go no go,2022.2.4,60.06598260146599,
X,space,,,,,0,5,5,13,,,,,,,,,,,,,,,,,,,,,32.426055584001006,32.426055584001006,33.026097000001755,space,1,34.42627008400086,0.3820187489982345,,,,,,,,,,,,,,,,,,,,,,,,,,Hiram2,001,2022-11-04_15h43.23.532,Trial go no go,2022.2.4,60.06598260146599,
X,space,,,,,0,6,6,0,,,,,,,,,,,,,,,,,,,,,35.125996041999315,35.125996041999315,35.726119167000434,space,1,37.12604379199911,0.35669524900004035,,,,,,,,,,,,,,,,,,,,,,,,,,Hiram2,001,2022-11-04_15h43.23.532,Trial go no go,2022.2.4,60.06598260146599,
X,space,,,,,0,7,7,1,,,,,,,,,,,,,,,,,,,,,37.82649429199955,37.82649429199955,38.42641587500111,space,1,39.82606141699944,0.3482274990019505,,,,,,,,,,,,,,,,,,,,,,,,,,Hiram2,001,2022-11-04_15h43.23.532,Trial go no go,2022.2.4,60.06598260146599,
X,space,,,,,0,8,8,6,,,,,,,,,,,,,,,,,,,,,40.52639350000027,40.52639350000027,41.12662637500034,space,1,42.52602279200073,0.4073175829980755,,,,,,,,,,,,,,,,,,,,,,,,,,Hiram2,001,2022-11-04_15h43.23.532,Trial go no go,2022.2.4,60.06598260146599,
V,none,,,,,0,9,9,9,,,,,,,,,,,,,,,,,,,,,43.22623575000034,43.22623575000034,43.826927459002036,None,1,45.226311209000414,,,,,,,,,,,,,,,,,,,,,,,,,,,Hiram2,001,2022-11-04_15h43.23.532,Trial go no go,2022.2.4,60.06598260146599,
X,space,,,,,0,10,10,8,,,,,,,,,,,,,,,,,,,,,45.92621437500202,45.92621437500202,46.52670874999967,space,1,47.926459334001265,0.44148966599823325,,,,,,,,,,,,,,,,,,,,,,,,,,Hiram2,001,2022-11-04_15h43.23.532,Trial go no go,2022.2.4,60.06598260146599,
K,none,,,,,0,11,11,14,,,,,,,,,,,,,,,,,,,,,48.62691566700232,48.62691566700232,49.226431041999604,space,0,50.6264294169996,0.4561655409997911,,,,,,,,,,,,,,,,,,,,,,,,,,Hiram2,001,2022-11-04_15h43.23.532,Trial go no go,2022.2.4,60.06598260146599,
W,none,,,,,0,12,12,4,,,,,,,,,,,,,,,,,,,,,51.3264516670024,51.3264516670024,51.92666850000023,None,1,53.326931709001656,,,,,,,,,,,,,,,,,,,,,,,,,,,Hiram2,001,2022-11-04_15h43.23.532,Trial go no go,2022.2.4,60.06598260146599,
X,space,,,,,0,13,13,5,,,,,,,,,,,,,,,,,,,,,54.02707416699923,54.02707416699923,54.6267885840025,space,1,56.02721345900136,0.46267483300107415,,,,,,,,,,,,,,,,,,,,,,,,,,Hiram2,001,2022-11-04_15h43.23.532,Trial go no go,2022.2.4,60.06598260146599,
X,space,,,,,0,14,14,11,,,,,,,,,,,,,,,,,,,,,56.72665670900096,56.72665670900096,57.32684391700241,space,1,58.726567583998985,0.5721748749965627,,,,,,,,,,,,,,,,,,,,,,,,,,Hiram2,001,2022-11-04_15h43.23.532,Trial go no go,2022.2.4,60.06598260146599,
,,,,,,,,,,,,,,,,,,,,,,,,,,,,,,,,,,,,,59.42707016699933,59.91006779199961,space,5.632073582997691,,,,,,,,,,,,,,,,,,,,,,Hiram2,001,2022-11-04_15h43.23.532,Trial go no go,2022.2.4,60.06598260146599,
,,N,none,,,,,,,0,0,0,34,,,,,,,,,,,,,,,,,,,,,,,,,,,,65.09209050000209,65.09209050000209,65.39390341699982,None,1,,,,,,,,,,,,,,,,,Hiram2,001,2022-11-04_15h43.23.532,Trial go no go,2022.2.4,60.06598260146599,
,,H,none,,,,,,,0,1,1,24,,,,,,,,,,,,,,,,,,,,,,,,,,,,66.09413754200068,66.09413754200068,66.39393791700059,None,1,,,,,,,,,,,,,,,,,Hiram2,001,2022-11-04_15h43.23.532,Trial go no go,2022.2.4,60.06598260146599,
,,X,space,,,,,,,0,2,2,15,,,,,,,,,,,,,,,,,,,,,,,,,,,,67.09397616700153,67.09397616700153,67.39383445900239,space,1,0.37692041600166704,,,,,,,,,,,,,,,,Hiram2,001,2022-11-04_15h43.23.532,Trial go no go,2022.2.4,60.06598260146599,
,,X,space,,,,,,,0,3,3,6,,,,,,,,,,,,,,,,,,,,,,,,,,,,68.09358345900182,68.09358345900182,68.39380266700027,space,1,0.32270066699857125,,,,,,,,,,,,,,,,Hiram2,001,2022-11-04_15h43.23.532,Trial go no go,2022.2.4,60.06598260146599,
,,X,space,,,,,,,0,4,4,30,,,,,,,,,,,,,,,,,,,,,,,,,,,,69.09403129199927,69.09403129199927,69.39386591700168,space,1,0.31964279099702253,,,,,,,,,,,,,,,,Hiram2,001,2022-11-04_15h43.23.532,Trial go no go,2022.2.4,60.06598260146599,
,,X,space,,,,,,,0,5,5,16,,,,,,,,,,,,,,,,,,,,,,,,,,,,70.09367375000147,70.09367375000147,70.39393454200035,space,1,0.25712724899858586,,,,,,,,,,,,,,,,Hiram2,001,2022-11-04_15h43.23.532,Trial go no go,2022.2.4,60.06598260146599,
,,X,space,,,,,,,0,6,6,3,,,,,,,,,,,,,,,,,,,,,,,,,,,,71.09451941700172,71.09451941700172,71.39386641700185,space,1,0.3221502079977654,,,,,,,,,,,,,,,,Hiram2,001,2022-11-04_15h43.23.532,Trial go no go,2022.2.4,60.06598260146599,
,,X,space,,,,,,,0,7,7,0,,,,,,,,,,,,,,,,,,,,,,,,,,,,72.09414616700087,72.09414616700087,72.39392779199989,space,1,0.29996812499666703,,,,,,,,,,,,,,,,Hiram2,001,2022-11-04_15h43.23.532,Trial go no go,2022.2.4,60.06598260146599,
,,X,space,,,,,,,0,8,8,33,,,,,,,,,,,,,,,,,,,,,,,,,,,,73.0938366670016,73.0938366670016,73.3945160000003,space,1,0.27828229099759483,,,,,,,,,,,,,,,,Hiram2,001,2022-11-04_15h43.23.532,Trial go no go,2022.2.4,60.06598260146599,
,,X,space,,,,,,,0,9,9,26,,,,,,,,,,,,,,,,,,,,,,,,,,,,74.09377995899922,74.09377995899922,74.39368783399914,space,1,0.3359899159986526,,,,,,,,,,,,,,,,Hiram2,001,2022-11-04_15h43.23.532,Trial go no go,2022.2.4,60.06598260146599,
,,X,space,,,,,,,0,10,10,17,,,,,,,,,,,,,,,,,,,,,,,,,,,,75.09388291700088,75.09388291700088,75.39399633400171,space,1,0.29865487500137533,,,,,,,,,,,,,,,,Hiram2,001,2022-11-04_15h43.23.532,Trial go no go,2022.2.4,60.06598260146599,
,,X,space,,,,,,,0,11,11,27,,,,,,,,,,,,,,,,,,,,,,,,,,,,76.0941475840009,76.0941475840009,76.39382791699973,space,1,0.3558477499973378,,,,,,,,,,,,,,,,Hiram2,001,2022-11-04_15h43.23.532,Trial go no go,2022.2.4,60.06598260146599,
,,W,none,,,,,,,0,12,12,9,,,,,,,,,,,,,,,,,,,,,,,,,,,,77.09446112500154,77.09446112500154,77.39425791699978,space,0,0.27487966600165237,,,,,,,,,,,,,,,,Hiram2,001,2022-11-04_15h43.23.532,Trial go no go,2022.2.4,60.06598260146599,
,,X,space,,,,,,,0,13,13,48,,,,,,,,,,,,,,,,,,,,,,,,,,,,78.09442458400008,78.09442458400008,78.39376987500145,space,1,0.32033333299841615,,,,,,,,,,,,,,,,Hiram2,001,2022-11-04_15h43.23.532,Trial go no go,2022.2.4,60.06598260146599,
,,X,space,,,,,,,0,14,14,43,,,,,,,,,,,,,,,,,,,,,,,,,,,,79.09386141700088,79.09386141700088,79.39384062500176,None,0,,,,,,,,,,,,,,,,,Hiram2,001,2022-11-04_15h43.23.532,Trial go no go,2022.2.4,60.06598260146599,
,,X,space,,,,,,,0,15,15,31,,,,,,,,,,,,,,,,,,,,,,,,,,,,80.0941144999997,80.0941144999997,80.39443820900124,space,1,0.3147754999990866,,,,,,,,,,,,,,,,Hiram2,001,2022-11-04_15h43.23.532,Trial go no go,2022.2.4,60.06598260146599,
,,X,space,,,,,,,0,16,16,38,,,,,,,,,,,,,,,,,,,,,,,,,,,,81.09395366700119,81.09395366700119,81.393901792002,space,1,0.30886199999804376,,,,,,,,,,,,,,,,Hiram2,001,2022-11-04_15h43.23.532,Trial go no go,2022.2.4,60.06598260146599,
,,X,space,,,,,,,0,17,17,46,,,,,,,,,,,,,,,,,,,,,,,,,,,,82.09410362500057,82.09410362500057,82.3939378340001,space,1,0.2672625000013795,,,,,,,,,,,,,,,,Hiram2,001,2022-11-04_15h43.23.532,Trial go no go,2022.2.4,60.06598260146599,
,,Y,none,,,,,,,0,18,18,14,,,,,,,,,,,,,,,,,,,,,,,,,,,,83.09411662500133,83.09411662500133,83.3944055840002,space,0,0.27754683299644967,,,,,,,,,,,,,,,,Hiram2,001,2022-11-04_15h43.23.532,Trial go no go,2022.2.4,60.06598260146599,
,,T,none,,,,,,,0,19,19,29,,,,,,,,,,,,,,,,,,,,,,,,,,,,84.09416124999916,84.09416124999916,84.39417512500222,None,1,,,,,,,,,,,,,,,,,Hiram2,001,2022-11-04_15h43.23.532,Trial go no go,2022.2.4,60.06598260146599,
,,X,space,,,,,,,0,20,20,20,,,,,,,,,,,,,,,,,,,,,,,,,,,,85.09411900000123,85.09411900000123,85.39450100000249,space,1,0.2896844999959285,,,,,,,,,,,,,,,,Hiram2,001,2022-11-04_15h43.23.532,Trial go no go,2022.2.4,60.06598260146599,
,,X,space,,,,,,,0,21,21,8,,,,,,,,,,,,,,,,,,,,,,,,,,,,86.09426533400256,86.09426533400256,86.39397520900093,space,1,0.41639133299759123,,,,,,,,,,,,,,,,Hiram2,001,2022-11-04_15h43.23.532,Trial go no go,2022.2.4,60.06598260146599,
,,X,space,,,,,,,0,22,22,25,,,,,,,,,,,,,,,,,,,,,,,,,,,,87.09434291700018,87.09434291700018,87.39422787500007,space,1,0.3388196660016547,,,,,,,,,,,,,,,,Hiram2,001,2022-11-04_15h43.23.532,Trial go no go,2022.2.4,60.06598260146599,
,,X,space,,,,,,,0,23,23,37,,,,,,,,,,,,,,,,,,,,,,,,,,,,88.0940834590001,88.0940834590001,88.39410775000215,space,1,0.31292787399797817,,,,,,,,,,,,,,,,Hiram2,001,2022-11-04_15h43.23.532,Trial go no go,2022.2.4,60.06598260146599,
,,K,none,,,,,,,0,24,24,19,,,,,,,,,,,,,,,,,,,,,,,,,,,,89.09428479200142,89.09428479200142,89.39442662500005,None,1,,,,,,,,,,,,,,,,,Hiram2,001,2022-11-04_15h43.23.532,Trial go no go,2022.2.4,60.06598260146599,
,,X,space,,,,,,,0,25,25,2,,,,,,,,,,,,,,,,,,,,,,,,,,,,90.09418466699935,90.09418466699935,90.39443525000024,space,1,0.29630895799709833,,,,,,,,,,,,,,,,Hiram2,001,2022-11-04_15h43.23.532,Trial go no go,2022.2.4,60.06598260146599,
,,X,space,,,,,,,0,26,26,23,,,,,,,,,,,,,,,,,,,,,,,,,,,,91.09425087500131,91.09425087500131,91.39413108400186,space,1,0.4643026239973551,,,,,,,,,,,,,,,,Hiram2,001,2022-11-04_15h43.23.532,Trial go no go,2022.2.4,60.06598260146599,
,,X,space,,,,,,,0,27,27,11,,,,,,,,,,,,,,,,,,,,,,,,,,,,92.09449354200115,92.09449354200115,92.39469000000099,space,1,0.38106329099900904,,,,,,,,,,,,,,,,Hiram2,001,2022-11-04_15h43.23.532,Trial go no go,2022.2.4,60.06598260146599,
,,X,space,,,,,,,0,28,28,35,,,,,,,,,,,,,,,,,,,,,,,,,,,,93.09443208399898,93.09443208399898,93.39417991700248,space,1,0.4505219160018896,,,,,,,,,,,,,,,,Hiram2,001,2022-11-04_15h43.23.532,Trial go no go,2022.2.4,60.06598260146599,
,,X,space,,,,,,,0,29,29,10,,,,,,,,,,,,,,,,,,,,,,,,,,,,94.09466858399901,94.09466858399901,94.3945040840008,space,1,0.2989240829992923,,,,,,,,,,,,,,,,Hiram2,001,2022-11-04_15h43.23.532,Trial go no go,2022.2.4,60.06598260146599,
,,X,space,,,,,,,0,30,30,1,,,,,,,,,,,,,,,,,,,,,,,,,,,,95.09436487499988,95.09436487499988,95.39464325000154,space,1,0.29457712499788613,,,,,,,,,,,,,,,,Hiram2,001,2022-11-04_15h43.23.532,Trial go no go,2022.2.4,60.06598260146599,
,,X,space,,,,,,,0,31,31,32,,,,,,,,,,,,,,,,,,,,,,,,,,,,96.094565667001,96.094565667001,96.39433079200171,space,1,0.30916475000049104,,,,,,,,,,,,,,,,Hiram2,001,2022-11-04_15h43.23.532,Trial go no go,2022.2.4,60.06598260146599,
,,X,space,,,,,,,0,32,32,7,,,,,,,,,,,,,,,,,,,,,,,,,,,,97.09487858400098,97.09487858400098,97.39446720900014,space,1,0.38155120800001896,,,,,,,,,,,,,,,,Hiram2,001,2022-11-04_15h43.23.532,Trial go no go,2022.2.4,60.06598260146599,
,,X,space,,,,,,,0,33,33,45,,,,,,,,,,,,,,,,,,,,,,,,,,,,98.09450574999937,98.09450574999937,98.39512937499967,space,1,0.28697633299816516,,,,,,,,,,,,,,,,Hiram2,001,2022-11-04_15h43.23.532,Trial go no go,2022.2.4,60.06598260146599,
,,F,none,,,,,,,0,34,34,44,,,,,,,,,,,,,,,,,,,,,,,,,,,,99.09446262500205,99.09446262500205,99.39521808400241,None,1,,,,,,,,,,,,,,,,,Hiram2,001,2022-11-04_15h43.23.532,Trial go no go,2022.2.4,60.06598260146599,
,,X,space,,,,,,,0,35,35,22,,,,,,,,,,,,,,,,,,,,,,,,,,,,100.09439291700255,100.09439291700255,100.39433783400091,space,1,0.3617566249995434,,,,,,,,,,,,,,,,Hiram2,001,2022-11-04_15h43.23.532,Trial go no go,2022.2.4,60.06598260146599,
,,X,space,,,,,,,0,36,36,21,,,,,,,,,,,,,,,,,,,,,,,,,,,,101.09448937500201,101.09448937500201,101.39473575000011,space,1,0.3647622489988862,,,,,,,,,,,,,,,,Hiram2,001,2022-11-04_15h43.23.532,Trial go no go,2022.2.4,60.06598260146599,
,,V,none,,,,,,,0,37,37,4,,,,,,,,,,,,,,,,,,,,,,,,,,,,102.0951104170017,102.0951104170017,102.39446304200101,None,1,,,,,,,,,,,,,,,,,Hiram2,001,2022-11-04_15h43.23.532,Trial go no go,2022.2.4,60.06598260146599,
,,X,space,,,,,,,0,38,38,40,,,,,,,,,,,,,,,,,,,,,,,,,,,,103.09433945899946,103.09433945899946,103.3944381250003,space,1,0.2764229999993404,,,,,,,,,,,,,,,,Hiram2,001,2022-11-04_15h43.23.532,Trial go no go,2022.2.4,60.06598260146599,
,,X,space,,,,,,,0,39,39,5,,,,,,,,,,,,,,,,,,,,,,,,,,,,104.09462033399905,104.09462033399905,104.394615084002,space,1,0.5837332909977704,,,,,,,,,,,,,,,,Hiram2,001,2022-11-04_15h43.23.532,Trial go no go,2022.2.4,60.06598260146599,
,,X,space,,,,,,,0,40,40,47,,,,,,,,,,,,,,,,,,,,,,,,,,,,105.09488666700054,105.09488666700054,105.39484745899972,space,1,0.3327210829993419,,,,,,,,,,,,,,,,Hiram2,001,2022-11-04_15h43.23.532,Trial go no go,2022.2.4,60.06598260146599,
,,X,space,,,,,,,0,41,41,42,,,,,,,,,,,,,,,,,,,,,,,,,,,,106.09463524999956,106.09463524999956,106.39467275000061,space,1,0.34325862499827053,,,,,,,,,,,,,,,,Hiram2,001,2022-11-04_15h43.23.532,Trial go no go,2022.2.4,60.06598260146599,
,,X,space,,,,,,,0,42,42,18,,,,,,,,,,,,,,,,,,,,,,,,,,,,107.09528866700202,107.09528866700202,107.39449850000165,space,1,0.33920054099871777,,,,,,,,,,,,,,,,Hiram2,001,2022-11-04_15h43.23.532,Trial go no go,2022.2.4,60.06598260146599,
,,X,space,,,,,,,0,43,43,36,,,,,,,,,,,,,,,,,,,,,,,,,,,,108.09484408400021,108.09484408400021,108.39536333400247,space,1,0.3407814580023114,,,,,,,,,,,,,,,,Hiram2,001,2022-11-04_15h43.23.532,Trial go no go,2022.2.4,60.06598260146599,
,,E,none,,,,,,,0,44,44,49,,,,,,,,,,,,,,,,,,,,,,,,,,,,109.09466025000074,109.09466025000074,109.39466249999896,None,1,,,,,,,,,,,,,,,,,Hiram2,001,2022-11-04_15h43.23.532,Trial go no go,2022.2.4,60.06598260146599,
,,X,space,,,,,,,0,45,45,13,,,,,,,,,,,,,,,,,,,,,,,,,,,,110.09465737500068,110.09465737500068,110.39451895900129,space,1,0.3482278329975088,,,,,,,,,,,,,,,,Hiram2,001,2022-11-04_15h43.23.532,Trial go no go,2022.2.4,60.06598260146599,
,,X,space,,,,,,,0,46,46,28,,,,,,,,,,,,,,,,,,,,,,,,,,,,111.09490416699919,111.09490416699919,111.39451983400068,space,1,0.41738374999840744,,,,,,,,,,,,,,,,Hiram2,001,2022-11-04_15h43.23.532,Trial go no go,2022.2.4,60.06598260146599,
,,M,none,,,,,,,0,47,47,39,,,,,,,,,,,,,,,,,,,,,,,,,,,,112.09531183400031,112.09531183400031,112.39466845900097,space,0,0.3557173739973223,,,,,,,,,,,,,,,,Hiram2,001,2022-11-04_15h43.23.532,Trial go no go,2022.2.4,60.06598260146599,
,,X,space,,,,,,,0,48,48,41,,,,,,,,,,,,,,,,,,,,,,,,,,,,113.09520650000195,113.09520650000195,113.39481679200253,space,1,0.43311104199892725,,,,,,,,,,,,,,,,Hiram2,001,2022-11-04_15h43.23.532,Trial go no go,2022.2.4,60.06598260146599,
,,X,space,,,,,,,0,49,49,12,,,,,,,,,,,,,,,,,,,,,,,,,,,,114.09480512500159,114.09480512500159,114.39469675000146,space,1,0.3338885420016595,,,,,,,,,,,,,,,,Hiram2,001,2022-11-04_15h43.23.532,Trial go no go,2022.2.4,60.06598260146599,
,,,,,,,,,,,,,,,,,,,,,,,,,,,,,,,,,,,,,,,,,,,,,,,115.09522937500151,115.56154433399934,space,2.6099381249987346,,,,,,,,,,,,Hiram2,001,2022-11-04_15h43.23.532,Trial go no go,2022.2.4,60.06598260146599,
,,,,A,space,,,,,,,,,0,0,0,45,,,,,,,,,,,,,,,,,,,,,,,,,,,,,,,,,,117.7443994589994,117.7443994589994,118.04500800000096,None,0,,,,,,,Hiram2,001,2022-11-04_15h43.23.532,Trial go no go,2022.2.4,60.06598260146599,
,,,,K,space,,,,,,,,,0,1,1,30,,,,,,,,,,,,,,,,,,,,,,,,,,,,,,,,,,118.74554704199909,118.74554704199909,119.04506729200148,None,0,,,,,,,Hiram2,001,2022-11-04_15h43.23.532,Trial go no go,2022.2.4,60.06598260146599,
,,,,I,space,,,,,,,,,0,2,2,25,,,,,,,,,,,,,,,,,,,,,,,,,,,,,,,,,,119.74497045899989,119.74497045899989,120.04498299999977,None,0,,,,,,,Hiram2,001,2022-11-04_15h43.23.532,Trial go no go,2022.2.4,60.06598260146599,
,,,,Y,space,,,,,,,,,0,3,3,23,,,,,,,,,,,,,,,,,,,,,,,,,,,,,,,,,,120.74492850000024,120.74492850000024,121.04489241700139,space,1,0.24974995799857425,,,,,,Hiram2,001,2022-11-04_15h43.23.532,Trial go no go,2022.2.4,60.06598260146599,
,,,,V,space,,,,,,,,,0,4,4,15,,,,,,,,,,,,,,,,,,,,,,,,,,,,,,,,,,121.74522254200201,121.74522254200201,122.0452538339996,space,1,0.2654587079996418,,,,,,Hiram2,001,2022-11-04_15h43.23.532,Trial go no go,2022.2.4,60.06598260146599,
,,,,F,space,,,,,,,,,0,5,5,27,,,,,,,,,,,,,,,,,,,,,,,,,,,,,,,,,,122.74494120899908,122.74494120899908,123.04484191700249,space,1,0.37077333299748716,,,,,,Hiram2,001,2022-11-04_15h43.23.532,Trial go no go,2022.2.4,60.06598260146599,
,,,,Z,space,,,,,,,,,0,6,6,32,,,,,,,,,,,,,,,,,,,,,,,,,,,,,,,,,,123.74525462500242,123.74525462500242,124.04511233399899,space,1,0.35104604099615244,,,,,,Hiram2,001,2022-11-04_15h43.23.532,Trial go no go,2022.2.4,60.06598260146599,
,,,,E,space,,,,,,,,,0,7,7,20,,,,,,,,,,,,,,,,,,,,,,,,,,,,,,,,,,124.74531129200113,124.74531129200113,125.04503275000025,space,1,0.3495366249990184,,,,,,Hiram2,001,2022-11-04_15h43.23.532,Trial go no go,2022.2.4,60.06598260146599,
,,,,H,space,,,,,,,,,0,8,8,47,,,,,,,,,,,,,,,,,,,,,,,,,,,,,,,,,,125.74517062499945,125.74517062499945,126.04526837500089,space,1,0.34030137399895466,,,,,,Hiram2,001,2022-11-04_15h43.23.532,Trial go no go,2022.2.4,60.06598260146599,
,,,,H,space,,,,,,,,,0,9,9,10,,,,,,,,,,,,,,,,,,,,,,,,,,,,,,,,,,126.74487491699983,126.74487491699983,127.04517275000035,space,1,0.31401487499897485,,,,,,Hiram2,001,2022-11-04_15h43.23.532,Trial go no go,2022.2.4,60.06598260146599,
,,,,Z,space,,,,,,,,,0,10,10,13,,,,,,,,,,,,,,,,,,,,,,,,,,,,,,,,,,127.74516883400065,127.74516883400065,128.04510462500184,space,1,0.3212229579985433,,,,,,Hiram2,001,2022-11-04_15h43.23.532,Trial go no go,2022.2.4,60.06598260146599,
,,,,R,space,,,,,,,,,0,11,11,40,,,,,,,,,,,,,,,,,,,,,,,,,,,,,,,,,,128.74521416700009,128.74521416700009,129.04551791700214,space,1,0.3408307079989754,,,,,,Hiram2,001,2022-11-04_15h43.23.532,Trial go no go,2022.2.4,60.06598260146599,
,,,,X,none,,,,,,,,,0,12,12,34,,,,,,,,,,,,,,,,,,,,,,,,,,,,,,,,,,129.7451734999995,129.7451734999995,130.0452655420013,space,0,0.3090549579974322,,,,,,Hiram2,001,2022-11-04_15h43.23.532,Trial go no go,2022.2.4,60.06598260146599,
,,,,N,space,,,,,,,,,0,13,13,35,,,,,,,,,,,,,,,,,,,,,,,,,,,,,,,,,,130.74516504200074,130.74516504200074,131.04524787500122,space,1,0.34902558300018427,,,,,,Hiram2,001,2022-11-04_15h43.23.532,Trial go no go,2022.2.4,60.06598260146599,
,,,,I,space,,,,,,,,,0,14,14,6,,,,,,,,,,,,,,,,,,,,,,,,,,,,,,,,,,131.74527283399948,131.74527283399948,132.04530633399918,space,1,0.33905729199614143,,,,,,Hiram2,001,2022-11-04_15h43.23.532,Trial go no go,2022.2.4,60.06598260146599,
,,,,K,space,,,,,,,,,0,15,15,11,,,,,,,,,,,,,,,,,,,,,,,,,,,,,,,,,,132.74528741700124,132.74528741700124,133.0452099590002,space,1,0.3633119579972117,,,,,,Hiram2,001,2022-11-04_15h43.23.532,Trial go no go,2022.2.4,60.06598260146599,
,,,,A,space,,,,,,,,,0,16,16,26,,,,,,,,,,,,,,,,,,,,,,,,,,,,,,,,,,133.7453653340017,133.7453653340017,134.04567791700174,space,1,0.4924972919980064,,,,,,Hiram2,001,2022-11-04_15h43.23.532,Trial go no go,2022.2.4,60.06598260146599,
,,,,F,space,,,,,,,,,0,17,17,46,,,,,,,,,,,,,,,,,,,,,,,,,,,,,,,,,,134.745456749999,134.745456749999,135.04526241699932,space,1,0.42376662400056375,,,,,,Hiram2,001,2022-11-04_15h43.23.532,Trial go no go,2022.2.4,60.06598260146599,
,,,,Y,space,,,,,,,,,0,18,18,42,,,,,,,,,,,,,,,,,,,,,,,,,,,,,,,,,,135.74543950000225,135.74543950000225,136.04538287499963,space,1,0.3510277079985826,,,,,,Hiram2,001,2022-11-04_15h43.23.532,Trial go no go,2022.2.4,60.06598260146599,
,,,,N,space,,,,,,,,,0,19,19,16,,,,,,,,,,,,,,,,,,,,,,,,,,,,,,,,,,136.74550845900012,136.74550845900012,137.04538970900103,space,1,0.3339595419965917,,,,,,Hiram2,001,2022-11-04_15h43.23.532,Trial go no go,2022.2.4,60.06598260146599,
,,,,X,none,,,,,,,,,0,20,20,14,,,,,,,,,,,,,,,,,,,,,,,,,,,,,,,,,,137.74565458399957,137.74565458399957,138.04531566700098,space,0,0.33148783299839124,,,,,,Hiram2,001,2022-11-04_15h43.23.532,Trial go no go,2022.2.4,60.06598260146599,
,,,,X,none,,,,,,,,,0,21,21,29,,,,,,,,,,,,,,,,,,,,,,,,,,,,,,,,,,138.74538416699943,138.74538416699943,139.0453714590003,None,1,,,,,,,Hiram2,001,2022-11-04_15h43.23.532,Trial go no go,2022.2.4,60.06598260146599,
,,,,T,space,,,,,,,,,0,22,22,3,,,,,,,,,,,,,,,,,,,,,,,,,,,,,,,,,,139.74636762500086,139.74636762500086,140.0621092500005,space,1,0.37528762399597326,,,,,,Hiram2,001,2022-11-04_15h43.23.532,Trial go no go,2022.2.4,60.06598260146599,
,,,,T,space,,,,,,,,,0,23,23,22,,,,,,,,,,,,,,,,,,,,,,,,,,,,,,,,,,140.74552516699987,140.74552516699987,141.0453555000022,space,1,0.47130304199890816,,,,,,Hiram2,001,2022-11-04_15h43.23.532,Trial go no go,2022.2.4,60.06598260146599,
,,,,X,none,,,,,,,,,0,24,24,24,,,,,,,,,,,,,,,,,,,,,,,,,,,,,,,,,,141.7454695000015,141.7454695000015,142.04560666700127,None,1,,,,,,,Hiram2,001,2022-11-04_15h43.23.532,Trial go no go,2022.2.4,60.06598260146599,
,,,,X,none,,,,,,,,,0,25,25,19,,,,,,,,,,,,,,,,,,,,,,,,,,,,,,,,,,142.7457606249991,142.7457606249991,143.04569854200236,None,1,,,,,,,Hiram2,001,2022-11-04_15h43.23.532,Trial go no go,2022.2.4,60.06598260146599,
,,,,X,none,,,,,,,,,0,26,26,9,,,,,,,,,,,,,,,,,,,,,,,,,,,,,,,,,,143.7454818340011,143.7454818340011,144.04515033400094,None,1,,,,,,,Hiram2,001,2022-11-04_15h43.23.532,Trial go no go,2022.2.4,60.06598260146599,
,,,,M,space,,,,,,,,,0,27,27,36,,,,,,,,,,,,,,,,,,,,,,,,,,,,,,,,,,144.74548116699953,144.74548116699953,145.0457298750007,space,1,0.42250516599597177,,,,,,Hiram2,001,2022-11-04_15h43.23.532,Trial go no go,2022.2.4,60.06598260146599,
,,,,W,space,,,,,,,,,0,28,28,0,,,,,,,,,,,,,,,,,,,,,,,,,,,,,,,,,,145.74564004200147,145.74564004200147,146.04573625000194,space,1,0.7218701249985315,,,,,,Hiram2,001,2022-11-04_15h43.23.532,Trial go no go,2022.2.4,60.06598260146599,
,,,,A,space,,,,,,,,,0,29,29,7,,,,,,,,,,,,,,,,,,,,,,,,,,,,,,,,,,146.74571099999957,146.74571099999957,147.0463961250025,space,1,0.34841887500078883,,,,,,Hiram2,001,2022-11-04_15h43.23.532,Trial go no go,2022.2.4,60.06598260146599,
,,,,W,space,,,,,,,,,0,30,30,18,,,,,,,,,,,,,,,,,,,,,,,,,,,,,,,,,,147.7455876669992,147.7455876669992,148.04573220900056,None,0,,,,,,,Hiram2,001,2022-11-04_15h43.23.532,Trial go no go,2022.2.4,60.06598260146599,
,,,,E,space,,,,,,,,,0,31,31,38,,,,,,,,,,,,,,,,,,,,,,,,,,,,,,,,,,148.74594416699983,148.74594416699983,149.0457908339995,space,1,0.3211425829977088,,,,,,Hiram2,001,2022-11-04_15h43.23.532,Trial go no go,2022.2.4,60.06598260146599,
,,,,L,space,,,,,,,,,0,32,32,31,,,,,,,,,,,,,,,,,,,,,,,,,,,,,,,,,,149.74625512499915,149.74625512499915,150.04627291699944,space,1,0.39847366599860834,,,,,,Hiram2,001,2022-11-04_15h43.23.532,Trial go no go,2022.2.4,60.06598260146599,
,,,,X,none,,,,,,,,,0,33,33,44,,,,,,,,,,,,,,,,,,,,,,,,,,,,,,,,,,150.7460260000007,150.7460260000007,151.04564004200074,None,1,,,,,,,Hiram2,001,2022-11-04_15h43.23.532,Trial go no go,2022.2.4,60.06598260146599,
,,,,X,none,,,,,,,,,0,34,34,4,,,,,,,,,,,,,,,,,,,,,,,,,,,,,,,,,,151.7458770000012,151.7458770000012,152.046558500002,None,1,,,,,,,Hiram2,001,2022-11-04_15h43.23.532,Trial go no go,2022.2.4,60.06598260146599,
,,,,X,none,,,,,,,,,0,35,35,49,,,,,,,,,,,,,,,,,,,,,,,,,,,,,,,,,,152.74584566699923,152.74584566699923,153.04590375000043,None,1,,,,,,,Hiram2,001,2022-11-04_15h43.23.532,Trial go no go,2022.2.4,60.06598260146599,
,,,,L,space,,,,,,,,,0,36,36,12,,,,,,,,,,,,,,,,,,,,,,,,,,,,,,,,,,153.7468265839998,153.7468265839998,154.04582975000085,space,1,0.32255425000039395,,,,,,Hiram2,001,2022-11-04_15h43.23.532,Trial go no go,2022.2.4,60.06598260146599,
,,,,R,space,,,,,,,,,0,37,37,21,,,,,,,,,,,,,,,,,,,,,,,,,,,,,,,,,,154.7461856250011,154.7461856250011,155.04626912499953,space,1,0.43319516599876806,,,,,,Hiram2,001,2022-11-04_15h43.23.532,Trial go no go,2022.2.4,60.06598260146599,
,,,,I,space,,,,,,,,,0,38,38,43,,,,,,,,,,,,,,,,,,,,,,,,,,,,,,,,,,155.7459294170003,155.7459294170003,156.04616604200055,space,1,0.3441211249992193,,,,,,Hiram2,001,2022-11-04_15h43.23.532,Trial go no go,2022.2.4,60.06598260146599,
,,,,V,space,,,,,,,,,0,39,39,33,,,,,,,,,,,,,,,,,,,,,,,,,,,,,,,,,,156.74614629200005,156.74614629200005,157.04584454200085,space,1,0.3270008739964396,,,,,,Hiram2,001,2022-11-04_15h43.23.532,Trial go no go,2022.2.4,60.06598260146599,
,,,,K,space,,,,,,,,,0,40,40,48,,,,,,,,,,,,,,,,,,,,,,,,,,,,,,,,,,157.74585408400162,157.74585408400162,158.04698016700058,space,1,0.2843902499989781,,,,,,Hiram2,001,2022-11-04_15h43.23.532,Trial go no go,2022.2.4,60.06598260146599,
,,,,H,space,,,,,,,,,0,41,41,28,,,,,,,,,,,,,,,,,,,,,,,,,,,,,,,,,,158.7464339170001,158.7464339170001,159.04607170899908,space,1,0.31889666599818156,,,,,,Hiram2,001,2022-11-04_15h43.23.532,Trial go no go,2022.2.4,60.06598260146599,
,,,,Y,space,,,,,,,,,0,42,42,5,,,,,,,,,,,,,,,,,,,,,,,,,,,,,,,,,,159.74635995900098,159.74635995900098,160.04576599999928,space,1,0.254591207998601,,,,,,Hiram2,001,2022-11-04_15h43.23.532,Trial go no go,2022.2.4,60.06598260146599,
,,,,W,space,,,,,,,,,0,43,43,37,,,,,,,,,,,,,,,,,,,,,,,,,,,,,,,,,,160.74612795900248,160.74612795900248,161.0467611669992,space,1,0.2849232500011567,,,,,,Hiram2,001,2022-11-04_15h43.23.532,Trial go no go,2022.2.4,60.06598260146599,
,,,,F,space,,,,,,,,,0,44,44,8,,,,,,,,,,,,,,,,,,,,,,,,,,,,,,,,,,161.7460052919996,161.7460052919996,162.04610266700183,space,1,0.25882966699646204,,,,,,Hiram2,001,2022-11-04_15h43.23.532,Trial go no go,2022.2.4,60.06598260146599,
,,,,R,space,,,,,,,,,0,45,45,2,,,,,,,,,,,,,,,,,,,,,,,,,,,,,,,,,,162.74613533400043,162.74613533400043,163.0457343750022,space,1,0.26462662399717374,,,,,,Hiram2,001,2022-11-04_15h43.23.532,Trial go no go,2022.2.4,60.06598260146599,
,,,,X,none,,,,,,,,,0,46,46,39,,,,,,,,,,,,,,,,,,,,,,,,,,,,,,,,,,163.7460092500005,163.7460092500005,164.04620154200165,space,0,0.27565991599840345,,,,,,Hiram2,001,2022-11-04_15h43.23.532,Trial go no go,2022.2.4,60.06598260146599,
,,,,M,space,,,,,,,,,0,47,47,17,,,,,,,,,,,,,,,,,,,,,,,,,,,,,,,,,,164.7460268750001,164.7460268750001,165.04620516700015,space,1,0.3935028330015484,,,,,,Hiram2,001,2022-11-04_15h43.23.532,Trial go no go,2022.2.4,60.06598260146599,
,,,,E,space,,,,,,,,,0,48,48,1,,,,,,,,,,,,,,,,,,,,,,,,,,,,,,,,,,165.74601854200228,165.74601854200228,166.04644029200063,space,1,0.4007419999979902,,,,,,Hiram2,001,2022-11-04_15h43.23.532,Trial go no go,2022.2.4,60.06598260146599,
,,,,T,space,,,,,,,,,0,49,49,41,,,,,,,,,,,,,,,,,,,,,,,,,,,,,,,,,,166.72987041700253,166.72987041700253,167.02983233399937,space,1,0.33358325000153854,167.72975425000186,,,,,Hiram2,001,2022-11-04_15h43.23.532,Trial go no go,2022.2.4,60.06598260146599,
,,,,,,,,,,,,,,,,,,,,,,,,,,,,,,,,,,,,,,,,,,,,,,,,,,,,,,,,,,167.72975425000186,168.21287329199913,space,1.9542672499992477,Hiram2,001,2022-11-04_15h43.23.532,Trial go no go,2022.2.4,60.06598260146599,
