stimulus_prac1,corrAns_prac1,stimulus_test1,corrAns_test1,stimulus_test2,corrAns_test2,prac_trials.thisRepN,prac_trials.thisTrialN,prac_trials.thisN,prac_trials.thisIndex,test1trial.thisRepN,test1trial.thisTrialN,test1trial.thisN,test1trial.thisIndex,test2trial.thisRepN,test2trial.thisTrialN,test2trial.thisN,test2trial.thisIndex,image_welcome.started,resp_Welcome.started,resp_Welcome.keys,resp_Welcome.rt,resp_Instr_Intro.started,image_Instr_Intro.started,resp_Instr_Intro.keys,resp_Instr_Intro.rt,resp_Instr_Prac1.started,image_Instr_Prac1.started,resp_Instr_Prac1.keys,resp_Instr_Prac1.rt,text_trial_Prac1.started,resp_trial_Prac1.started,text_trial_Prac1.stopped,resp_trial_Prac1.keys,resp_trial_Prac1.corr,resp_trial_Prac1.rt,text_Feedback_Prac1.started,resp_Instr_Test1.started,image_Instr_Test1.started,resp_Instr_Test1.keys,resp_Instr_Test1.rt,text_trial_Test1.started,resp_trial_Test1.started,text_trial_Test1.stopped,resp_trial_Test1.keys,resp_trial_Test1.corr,resp_trial_Test1.rt,resp_Instr_Test2.started,image_Instr_Test2.started,resp_Instr_Test2.keys,resp_Instr_Test2.rt,text_trial_Test2.started,key_resp.started,text_trial_Test2.stopped,key_resp.keys,key_resp.corr,key_resp.rt,key_resp.stopped,resp_theEnd.started,image_theEnd.started,resp_theEnd.keys,resp_theEnd.rt,participant,session,date,expName,psychopyVersion,frameRate,
,,,,,,,,,,,,,,,,,,17.731940708001275,17.731940708001275,space,8.721688540999821,,,,,,,,,,,,,,,,,,,,,,,,,,,,,,,,,,,,,,,,,karlaMoreno2,001,2022-11-03_15h52.41.489,Trial go no go,2022.2.4,60.40165591146299,
,,,,,,,,,,,,,,,,,,,,,,26.4835999170009,26.981568832999983,space,12.46121120799944,,,,,,,,,,,,,,,,,,,,,,,,,,,,,,,,,,,,,karlaMoreno2,001,2022-11-03_15h52.41.489,Trial go no go,2022.2.4,60.40165591146299,
,,,,,,,,,,,,,,,,,,,,,,,,,,38.96538891700038,39.46448925000004,space,11.190129000000525,,,,,,,,,,,,,,,,,,,,,,,,,,,,,,,,,karlaMoreno2,001,2022-11-03_15h52.41.489,Trial go no go,2022.2.4,60.40165591146299,
X,space,,,,,0,0,0,8,,,,,,,,,,,,,,,,,,,,,50.23174962499979,50.23174962499979,50.832026416999724,space,1,0.8014554579985997,52.20063183300044,,,,,,,,,,,,,,,,,,,,,,,,,,karlaMoreno2,001,2022-11-03_15h52.41.489,Trial go no go,2022.2.4,60.40165591146299,
X,space,,,,,0,1,1,11,,,,,,,,,,,,,,,,,,,,,52.89914158300053,52.89914158300053,53.49945395800023,space,1,0.5928897489993687,54.899046833001194,,,,,,,,,,,,,,,,,,,,,,,,,,karlaMoreno2,001,2022-11-03_15h52.41.489,Trial go no go,2022.2.4,60.40165591146299,
K,none,,,,,0,2,2,14,,,,,,,,,,,,,,,,,,,,,55.598567458000616,55.598567458000616,56.19898662500054,None,1,,57.59881541700088,,,,,,,,,,,,,,,,,,,,,,,,,,karlaMoreno2,001,2022-11-03_15h52.41.489,Trial go no go,2022.2.4,60.40165591146299,
X,space,,,,,0,3,3,12,,,,,,,,,,,,,,,,,,,,,58.29889474999982,58.29889474999982,58.89894570800061,space,1,0.5264739169997483,60.298557333000645,,,,,,,,,,,,,,,,,,,,,,,,,,karlaMoreno2,001,2022-11-03_15h52.41.489,Trial go no go,2022.2.4,60.40165591146299,
X,space,,,,,0,4,4,1,,,,,,,,,,,,,,,,,,,,,60.998897583000144,60.998897583000144,61.5988575829997,space,1,0.5027370000007068,62.99874079199981,,,,,,,,,,,,,,,,,,,,,,,,,,karlaMoreno2,001,2022-11-03_15h52.41.489,Trial go no go,2022.2.4,60.40165591146299,
X,space,,,,,0,5,5,2,,,,,,,,,,,,,,,,,,,,,63.69878575000075,63.69878575000075,64.29872958300075,space,1,0.5103277489997708,65.69903691699983,,,,,,,,,,,,,,,,,,,,,,,,,,karlaMoreno2,001,2022-11-03_15h52.41.489,Trial go no go,2022.2.4,60.40165591146299,
X,space,,,,,0,6,6,3,,,,,,,,,,,,,,,,,,,,,66.39913250000063,66.39913250000063,66.99878383299983,space,1,0.4162888330010901,68.39890374999959,,,,,,,,,,,,,,,,,,,,,,,,,,karlaMoreno2,001,2022-11-03_15h52.41.489,Trial go no go,2022.2.4,60.40165591146299,
X,space,,,,,0,7,7,6,,,,,,,,,,,,,,,,,,,,,69.0990201250006,69.0990201250006,69.69935270800124,space,1,0.4829916249982489,71.0991947500006,,,,,,,,,,,,,,,,,,,,,,,,,,karlaMoreno2,001,2022-11-03_15h52.41.489,Trial go no go,2022.2.4,60.40165591146299,
W,none,,,,,0,8,8,4,,,,,,,,,,,,,,,,,,,,,71.79902849999962,71.79902849999962,72.39932650000083,None,1,,73.79924745800054,,,,,,,,,,,,,,,,,,,,,,,,,,karlaMoreno2,001,2022-11-03_15h52.41.489,Trial go no go,2022.2.4,60.40165591146299,
X,space,,,,,0,9,9,13,,,,,,,,,,,,,,,,,,,,,74.49934312500045,74.49934312500045,75.09953074999976,space,1,0.4837759999991249,76.4989262500003,,,,,,,,,,,,,,,,,,,,,,,,,,karlaMoreno2,001,2022-11-03_15h52.41.489,Trial go no go,2022.2.4,60.40165591146299,
X,space,,,,,0,10,10,7,,,,,,,,,,,,,,,,,,,,,77.19924925000123,77.19924925000123,77.79951316699953,space,1,0.4814480419991014,79.1991196250001,,,,,,,,,,,,,,,,,,,,,,,,,,karlaMoreno2,001,2022-11-03_15h52.41.489,Trial go no go,2022.2.4,60.40165591146299,
V,none,,,,,0,11,11,9,,,,,,,,,,,,,,,,,,,,,79.89941250000084,79.89941250000084,80.49937558300007,None,1,,81.8991930000011,,,,,,,,,,,,,,,,,,,,,,,,,,karlaMoreno2,001,2022-11-03_15h52.41.489,Trial go no go,2022.2.4,60.40165591146299,
X,space,,,,,0,12,12,10,,,,,,,,,,,,,,,,,,,,,82.5996347500004,82.5996347500004,83.19916250000097,space,1,0.44841916599943943,84.59935466699972,,,,,,,,,,,,,,,,,,,,,,,,,,karlaMoreno2,001,2022-11-03_15h52.41.489,Trial go no go,2022.2.4,60.40165591146299,
X,space,,,,,0,13,13,5,,,,,,,,,,,,,,,,,,,,,85.29921016700064,85.29921016700064,85.89956479200009,space,1,0.5021352910007408,87.29925025000011,,,,,,,,,,,,,,,,,,,,,,,,,,karlaMoreno2,001,2022-11-03_15h52.41.489,Trial go no go,2022.2.4,60.40165591146299,
X,space,,,,,0,14,14,0,,,,,,,,,,,,,,,,,,,,,87.99932137500036,87.99932137500036,88.59936687499976,space,1,0.5197352079994744,89.99939479200111,,,,,,,,,,,,,,,,,,,,,,,,,,karlaMoreno2,001,2022-11-03_15h52.41.489,Trial go no go,2022.2.4,60.40165591146299,
,,,,,,,,,,,,,,,,,,,,,,,,,,,,,,,,,,,,,90.69983408299959,91.16610066700014,space,3.4174622080008703,,,,,,,,,,,,,,,,,,,,,,karlaMoreno2,001,2022-11-03_15h52.41.489,Trial go no go,2022.2.4,60.40165591146299,
,,X,space,,,,,,,0,0,0,25,,,,,,,,,,,,,,,,,,,,,,,,,,,,94.1629551670012,94.1629551670012,94.46636495799976,space,1,0.5657871670009627,,,,,,,,,,,,,,,,karlaMoreno2,001,2022-11-03_15h52.41.489,Trial go no go,2022.2.4,60.40165591146299,
,,X,space,,,,,,,0,1,1,30,,,,,,,,,,,,,,,,,,,,,,,,,,,,95.16646058300103,95.16646058300103,95.46666283299965,space,1,0.4428160409988777,,,,,,,,,,,,,,,,karlaMoreno2,001,2022-11-03_15h52.41.489,Trial go no go,2022.2.4,60.40165591146299,
,,M,none,,,,,,,0,2,2,39,,,,,,,,,,,,,,,,,,,,,,,,,,,,96.16650362499968,96.16650362499968,96.46620512499976,space,0,0.2268887079990236,,,,,,,,,,,,,,,,karlaMoreno2,001,2022-11-03_15h52.41.489,Trial go no go,2022.2.4,60.40165591146299,
,,X,space,,,,,,,0,3,3,3,,,,,,,,,,,,,,,,,,,,,,,,,,,,97.16627466700083,97.16627466700083,97.46613116700064,space,1,0.2155094999998255,,,,,,,,,,,,,,,,karlaMoreno2,001,2022-11-03_15h52.41.489,Trial go no go,2022.2.4,60.40165591146299,
,,X,space,,,,,,,0,4,4,35,,,,,,,,,,,,,,,,,,,,,,,,,,,,98.16663049999988,98.16663049999988,98.46635829200022,space,1,0.395350666000013,,,,,,,,,,,,,,,,karlaMoreno2,001,2022-11-03_15h52.41.489,Trial go no go,2022.2.4,60.40165591146299,
,,X,space,,,,,,,0,5,5,38,,,,,,,,,,,,,,,,,,,,,,,,,,,,99.1664618750001,99.1664618750001,99.46669079200001,space,1,0.24136633299895038,,,,,,,,,,,,,,,,karlaMoreno2,001,2022-11-03_15h52.41.489,Trial go no go,2022.2.4,60.40165591146299,
,,X,space,,,,,,,0,6,6,37,,,,,,,,,,,,,,,,,,,,,,,,,,,,100.16650808300074,100.16650808300074,100.46759037500124,space,1,0.2829091249986959,,,,,,,,,,,,,,,,karlaMoreno2,001,2022-11-03_15h52.41.489,Trial go no go,2022.2.4,60.40165591146299,
,,V,none,,,,,,,0,7,7,4,,,,,,,,,,,,,,,,,,,,,,,,,,,,101.16661525000018,101.16661525000018,101.46636766700067,None,1,,,,,,,,,,,,,,,,,karlaMoreno2,001,2022-11-03_15h52.41.489,Trial go no go,2022.2.4,60.40165591146299,
,,X,space,,,,,,,0,8,8,17,,,,,,,,,,,,,,,,,,,,,,,,,,,,102.16696358300032,102.16696358300032,102.46629504200064,space,1,0.3182506659995852,,,,,,,,,,,,,,,,karlaMoreno2,001,2022-11-03_15h52.41.489,Trial go no go,2022.2.4,60.40165591146299,
,,X,space,,,,,,,0,9,9,23,,,,,,,,,,,,,,,,,,,,,,,,,,,,103.16693591700096,103.16693591700096,103.46661187500104,space,1,0.29283475000011094,,,,,,,,,,,,,,,,karlaMoreno2,001,2022-11-03_15h52.41.489,Trial go no go,2022.2.4,60.40165591146299,
,,X,space,,,,,,,0,10,10,16,,,,,,,,,,,,,,,,,,,,,,,,,,,,104.16663820800022,104.16663820800022,104.46743900000001,space,1,0.28487904199937475,,,,,,,,,,,,,,,,karlaMoreno2,001,2022-11-03_15h52.41.489,Trial go no go,2022.2.4,60.40165591146299,
,,X,space,,,,,,,0,11,11,7,,,,,,,,,,,,,,,,,,,,,,,,,,,,105.166599958,105.166599958,105.46667783300109,space,1,0.36230683299982047,,,,,,,,,,,,,,,,karlaMoreno2,001,2022-11-03_15h52.41.489,Trial go no go,2022.2.4,60.40165591146299,
,,X,space,,,,,,,0,12,12,48,,,,,,,,,,,,,,,,,,,,,,,,,,,,106.16667979200065,106.16667979200065,106.4668785419999,space,1,0.32068495799831,,,,,,,,,,,,,,,,karlaMoreno2,001,2022-11-03_15h52.41.489,Trial go no go,2022.2.4,60.40165591146299,
,,X,space,,,,,,,0,13,13,46,,,,,,,,,,,,,,,,,,,,,,,,,,,,107.16674345800129,107.16674345800129,107.46669320799992,space,1,0.3084042499995121,,,,,,,,,,,,,,,,karlaMoreno2,001,2022-11-03_15h52.41.489,Trial go no go,2022.2.4,60.40165591146299,
,,F,none,,,,,,,0,14,14,44,,,,,,,,,,,,,,,,,,,,,,,,,,,,108.1666267920009,108.1666267920009,108.4666715000003,None,1,,,,,,,,,,,,,,,,,karlaMoreno2,001,2022-11-03_15h52.41.489,Trial go no go,2022.2.4,60.40165591146299,
,,X,space,,,,,,,0,15,15,12,,,,,,,,,,,,,,,,,,,,,,,,,,,,109.16674033300114,109.16674033300114,109.46672537500126,space,1,0.34650220799994713,,,,,,,,,,,,,,,,karlaMoreno2,001,2022-11-03_15h52.41.489,Trial go no go,2022.2.4,60.40165591146299,
,,X,space,,,,,,,0,16,16,33,,,,,,,,,,,,,,,,,,,,,,,,,,,,110.16676075000032,110.16676075000032,110.46646091700131,space,1,0.2651589999986754,,,,,,,,,,,,,,,,karlaMoreno2,001,2022-11-03_15h52.41.489,Trial go no go,2022.2.4,60.40165591146299,
,,X,space,,,,,,,0,17,17,40,,,,,,,,,,,,,,,,,,,,,,,,,,,,111.16710254200007,111.16710254200007,111.46657975000016,space,1,0.2477834579985938,,,,,,,,,,,,,,,,karlaMoreno2,001,2022-11-03_15h52.41.489,Trial go no go,2022.2.4,60.40165591146299,
,,X,space,,,,,,,0,18,18,47,,,,,,,,,,,,,,,,,,,,,,,,,,,,112.16677283300123,112.16677283300123,112.46701495799971,space,1,0.35162533299990173,,,,,,,,,,,,,,,,karlaMoreno2,001,2022-11-03_15h52.41.489,Trial go no go,2022.2.4,60.40165591146299,
,,X,space,,,,,,,0,19,19,42,,,,,,,,,,,,,,,,,,,,,,,,,,,,113.16677416700077,113.16677416700077,113.4674883330008,space,1,0.30463966599927517,,,,,,,,,,,,,,,,karlaMoreno2,001,2022-11-03_15h52.41.489,Trial go no go,2022.2.4,60.40165591146299,
,,X,space,,,,,,,0,20,20,15,,,,,,,,,,,,,,,,,,,,,,,,,,,,114.16666554200128,114.16666554200128,114.4670330830013,space,1,0.290808833000483,,,,,,,,,,,,,,,,karlaMoreno2,001,2022-11-03_15h52.41.489,Trial go no go,2022.2.4,60.40165591146299,
,,Y,none,,,,,,,0,21,21,14,,,,,,,,,,,,,,,,,,,,,,,,,,,,115.16693525000119,115.16693525000119,115.4669441670012,space,0,0.2573661659989739,,,,,,,,,,,,,,,,karlaMoreno2,001,2022-11-03_15h52.41.489,Trial go no go,2022.2.4,60.40165591146299,
,,T,none,,,,,,,0,22,22,29,,,,,,,,,,,,,,,,,,,,,,,,,,,,116.16695945799984,116.16695945799984,116.46677962499962,None,1,,,,,,,,,,,,,,,,,karlaMoreno2,001,2022-11-03_15h52.41.489,Trial go no go,2022.2.4,60.40165591146299,
,,X,space,,,,,,,0,23,23,43,,,,,,,,,,,,,,,,,,,,,,,,,,,,117.16685945800054,117.16685945800054,117.46688750000067,space,1,0.40000358300130756,,,,,,,,,,,,,,,,karlaMoreno2,001,2022-11-03_15h52.41.489,Trial go no go,2022.2.4,60.40165591146299,
,,X,space,,,,,,,0,24,24,6,,,,,,,,,,,,,,,,,,,,,,,,,,,,118.16702525000073,118.16702525000073,118.46702183300113,space,1,0.334586582999691,,,,,,,,,,,,,,,,karlaMoreno2,001,2022-11-03_15h52.41.489,Trial go no go,2022.2.4,60.40165591146299,
,,X,space,,,,,,,0,25,25,2,,,,,,,,,,,,,,,,,,,,,,,,,,,,119.16705233300127,119.16705233300127,119.46684287500102,space,1,0.30544970800110605,,,,,,,,,,,,,,,,karlaMoreno2,001,2022-11-03_15h52.41.489,Trial go no go,2022.2.4,60.40165591146299,
,,X,space,,,,,,,0,26,26,22,,,,,,,,,,,,,,,,,,,,,,,,,,,,120.16697295800077,120.16697295800077,120.46700479200081,space,1,0.41073258299911686,,,,,,,,,,,,,,,,karlaMoreno2,001,2022-11-03_15h52.41.489,Trial go no go,2022.2.4,60.40165591146299,
,,X,space,,,,,,,0,27,27,27,,,,,,,,,,,,,,,,,,,,,,,,,,,,121.16752779200033,121.16752779200033,121.46707379200052,space,1,0.3205888739994407,,,,,,,,,,,,,,,,karlaMoreno2,001,2022-11-03_15h52.41.489,Trial go no go,2022.2.4,60.40165591146299,
,,X,space,,,,,,,0,28,28,41,,,,,,,,,,,,,,,,,,,,,,,,,,,,122.16692991700074,122.16692991700074,122.46689012500065,space,1,0.3824782490009966,,,,,,,,,,,,,,,,karlaMoreno2,001,2022-11-03_15h52.41.489,Trial go no go,2022.2.4,60.40165591146299,
,,W,none,,,,,,,0,29,29,9,,,,,,,,,,,,,,,,,,,,,,,,,,,,123.16696583300109,123.16696583300109,123.46707891700134,None,1,,,,,,,,,,,,,,,,,karlaMoreno2,001,2022-11-03_15h52.41.489,Trial go no go,2022.2.4,60.40165591146299,
,,X,space,,,,,,,0,30,30,8,,,,,,,,,,,,,,,,,,,,,,,,,,,,124.1673485829997,124.1673485829997,124.46725066700128,space,1,0.34172545799992804,,,,,,,,,,,,,,,,karlaMoreno2,001,2022-11-03_15h52.41.489,Trial go no go,2022.2.4,60.40165591146299,
,,X,space,,,,,,,0,31,31,26,,,,,,,,,,,,,,,,,,,,,,,,,,,,125.16743450000104,125.16743450000104,125.46718345800036,space,1,0.30479983299846936,,,,,,,,,,,,,,,,karlaMoreno2,001,2022-11-03_15h52.41.489,Trial go no go,2022.2.4,60.40165591146299,
,,X,space,,,,,,,0,32,32,20,,,,,,,,,,,,,,,,,,,,,,,,,,,,126.16714254200087,126.16714254200087,126.46799212500082,space,1,0.28193199999986973,,,,,,,,,,,,,,,,karlaMoreno2,001,2022-11-03_15h52.41.489,Trial go no go,2022.2.4,60.40165591146299,
,,X,space,,,,,,,0,33,33,28,,,,,,,,,,,,,,,,,,,,,,,,,,,,127.16703695800061,127.16703695800061,127.46722175000104,space,1,0.3654373330009548,,,,,,,,,,,,,,,,karlaMoreno2,001,2022-11-03_15h52.41.489,Trial go no go,2022.2.4,60.40165591146299,
,,X,space,,,,,,,0,34,34,45,,,,,,,,,,,,,,,,,,,,,,,,,,,,128.16746970799977,128.16746970799977,128.46710975000133,space,1,0.4148869990003732,,,,,,,,,,,,,,,,karlaMoreno2,001,2022-11-03_15h52.41.489,Trial go no go,2022.2.4,60.40165591146299,
,,N,none,,,,,,,0,35,35,34,,,,,,,,,,,,,,,,,,,,,,,,,,,,129.1674038330002,129.1674038330002,129.46702775000085,None,1,,,,,,,,,,,,,,,,,karlaMoreno2,001,2022-11-03_15h52.41.489,Trial go no go,2022.2.4,60.40165591146299,
,,K,none,,,,,,,0,36,36,19,,,,,,,,,,,,,,,,,,,,,,,,,,,,130.1670387080012,130.1670387080012,130.46729333300027,None,1,,,,,,,,,,,,,,,,,karlaMoreno2,001,2022-11-03_15h52.41.489,Trial go no go,2022.2.4,60.40165591146299,
,,X,space,,,,,,,0,37,37,31,,,,,,,,,,,,,,,,,,,,,,,,,,,,131.16710570800024,131.16710570800024,131.46698520800055,space,1,0.3148121659996832,,,,,,,,,,,,,,,,karlaMoreno2,001,2022-11-03_15h52.41.489,Trial go no go,2022.2.4,60.40165591146299,
,,X,space,,,,,,,0,38,38,0,,,,,,,,,,,,,,,,,,,,,,,,,,,,132.16734279199954,132.16734279199954,132.4674889580001,space,1,0.40363445799994224,,,,,,,,,,,,,,,,karlaMoreno2,001,2022-11-03_15h52.41.489,Trial go no go,2022.2.4,60.40165591146299,
,,X,space,,,,,,,0,39,39,18,,,,,,,,,,,,,,,,,,,,,,,,,,,,133.16732062499977,133.16732062499977,133.46718529200007,space,1,0.3509580419995473,,,,,,,,,,,,,,,,karlaMoreno2,001,2022-11-03_15h52.41.489,Trial go no go,2022.2.4,60.40165591146299,
,,X,space,,,,,,,0,40,40,10,,,,,,,,,,,,,,,,,,,,,,,,,,,,134.16767762500058,134.16767762500058,134.46811204200094,space,1,0.282121123998877,,,,,,,,,,,,,,,,karlaMoreno2,001,2022-11-03_15h52.41.489,Trial go no go,2022.2.4,60.40165591146299,
,,X,space,,,,,,,0,41,41,1,,,,,,,,,,,,,,,,,,,,,,,,,,,,135.16763400000127,135.16763400000127,135.46732095799962,space,1,0.3611849999997503,,,,,,,,,,,,,,,,karlaMoreno2,001,2022-11-03_15h52.41.489,Trial go no go,2022.2.4,60.40165591146299,
,,X,space,,,,,,,0,42,42,13,,,,,,,,,,,,,,,,,,,,,,,,,,,,136.1672371250006,136.1672371250006,136.46721508300107,space,1,0.3264727079986187,,,,,,,,,,,,,,,,karlaMoreno2,001,2022-11-03_15h52.41.489,Trial go no go,2022.2.4,60.40165591146299,
,,E,none,,,,,,,0,43,43,49,,,,,,,,,,,,,,,,,,,,,,,,,,,,137.16757925000093,137.16757925000093,137.46730262500023,None,1,,,,,,,,,,,,,,,,,karlaMoreno2,001,2022-11-03_15h52.41.489,Trial go no go,2022.2.4,60.40165591146299,
,,H,none,,,,,,,0,44,44,24,,,,,,,,,,,,,,,,,,,,,,,,,,,,138.16744987499987,138.16744987499987,138.46760454200012,None,1,,,,,,,,,,,,,,,,,karlaMoreno2,001,2022-11-03_15h52.41.489,Trial go no go,2022.2.4,60.40165591146299,
,,X,space,,,,,,,0,45,45,21,,,,,,,,,,,,,,,,,,,,,,,,,,,,139.1676485830012,139.1676485830012,139.46750345799956,space,1,0.3351402499993128,,,,,,,,,,,,,,,,karlaMoreno2,001,2022-11-03_15h52.41.489,Trial go no go,2022.2.4,60.40165591146299,
,,X,space,,,,,,,0,46,46,11,,,,,,,,,,,,,,,,,,,,,,,,,,,,140.16758016700078,140.16758016700078,140.46761620800135,space,1,0.5459047500007728,,,,,,,,,,,,,,,,karlaMoreno2,001,2022-11-03_15h52.41.489,Trial go no go,2022.2.4,60.40165591146299,
,,X,space,,,,,,,0,47,47,32,,,,,,,,,,,,,,,,,,,,,,,,,,,,141.1673178330002,141.1673178330002,141.46725266700014,space,1,0.39162695800041547,,,,,,,,,,,,,,,,karlaMoreno2,001,2022-11-03_15h52.41.489,Trial go no go,2022.2.4,60.40165591146299,
,,X,space,,,,,,,0,48,48,5,,,,,,,,,,,,,,,,,,,,,,,,,,,,142.16759091700078,142.16759091700078,142.46745737499987,space,1,0.3325247920001857,,,,,,,,,,,,,,,,karlaMoreno2,001,2022-11-03_15h52.41.489,Trial go no go,2022.2.4,60.40165591146299,
,,X,space,,,,,,,0,49,49,36,,,,,,,,,,,,,,,,,,,,,,,,,,,,143.16736545800086,143.16736545800086,143.4674588329999,space,1,0.3611806240005535,,,,,,,,,,,,,,,,karlaMoreno2,001,2022-11-03_15h52.41.489,Trial go no go,2022.2.4,60.40165591146299,
,,,,,,,,,,,,,,,,,,,,,,,,,,,,,,,,,,,,,,,,,,,,,,,144.16763083300066,144.63461975000064,space,5.065054124001108,,,,,,,,,,,,karlaMoreno2,001,2022-11-03_15h52.41.489,Trial go no go,2022.2.4,60.40165591146299,
,,,,M,space,,,,,,,,,0,0,0,36,,,,,,,,,,,,,,,,,,,,,,,,,,,,,,,,,,149.26466079199963,149.26466079199963,149.5678645830012,space,1,0.5369832079995831,,,,,,karlaMoreno2,001,2022-11-03_15h52.41.489,Trial go no go,2022.2.4,60.40165591146299,
,,,,A,space,,,,,,,,,0,1,1,45,,,,,,,,,,,,,,,,,,,,,,,,,,,,,,,,,,150.2678385830004,150.2678385830004,150.56776375000118,space,1,0.5221301239998866,,,,,,karlaMoreno2,001,2022-11-03_15h52.41.489,Trial go no go,2022.2.4,60.40165591146299,
,,,,E,space,,,,,,,,,0,2,2,20,,,,,,,,,,,,,,,,,,,,,,,,,,,,,,,,,,151.26771745800033,151.26771745800033,151.56779108299997,space,1,0.337935624000238,,,,,,karlaMoreno2,001,2022-11-03_15h52.41.489,Trial go no go,2022.2.4,60.40165591146299,
,,,,Y,space,,,,,,,,,0,3,3,42,,,,,,,,,,,,,,,,,,,,,,,,,,,,,,,,,,152.26771912500044,152.26771912500044,152.56766470799994,space,1,0.25624162499843806,,,,,,karlaMoreno2,001,2022-11-03_15h52.41.489,Trial go no go,2022.2.4,60.40165591146299,
,,,,W,space,,,,,,,,,0,4,4,37,,,,,,,,,,,,,,,,,,,,,,,,,,,,,,,,,,153.26792383300017,153.26792383300017,153.56767104200117,space,1,0.2722303329992428,,,,,,karlaMoreno2,001,2022-11-03_15h52.41.489,Trial go no go,2022.2.4,60.40165591146299,
,,,,Y,space,,,,,,,,,0,5,5,23,,,,,,,,,,,,,,,,,,,,,,,,,,,,,,,,,,154.26790658299979,154.26790658299979,154.56767645800028,space,1,0.2604004580007313,,,,,,karlaMoreno2,001,2022-11-03_15h52.41.489,Trial go no go,2022.2.4,60.40165591146299,
,,,,X,none,,,,,,,,,0,6,6,44,,,,,,,,,,,,,,,,,,,,,,,,,,,,,,,,,,155.2677743330005,155.2677743330005,155.56809375000012,None,1,,,,,,,karlaMoreno2,001,2022-11-03_15h52.41.489,Trial go no go,2022.2.4,60.40165591146299,
,,,,F,space,,,,,,,,,0,7,7,8,,,,,,,,,,,,,,,,,,,,,,,,,,,,,,,,,,156.26812620800047,156.26812620800047,156.56782616700002,space,1,0.33155079100106377,,,,,,karlaMoreno2,001,2022-11-03_15h52.41.489,Trial go no go,2022.2.4,60.40165591146299,
,,,,V,space,,,,,,,,,0,8,8,15,,,,,,,,,,,,,,,,,,,,,,,,,,,,,,,,,,157.26823908299957,157.26823908299957,157.56798937500025,space,1,0.27031691599950136,,,,,,karlaMoreno2,001,2022-11-03_15h52.41.489,Trial go no go,2022.2.4,60.40165591146299,
,,,,F,space,,,,,,,,,0,9,9,27,,,,,,,,,,,,,,,,,,,,,,,,,,,,,,,,,,158.26790862500093,158.26790862500093,158.56775350000134,space,1,0.34350274999997055,,,,,,karlaMoreno2,001,2022-11-03_15h52.41.489,Trial go no go,2022.2.4,60.40165591146299,
,,,,X,none,,,,,,,,,0,10,10,29,,,,,,,,,,,,,,,,,,,,,,,,,,,,,,,,,,159.26793016699958,159.26793016699958,159.56828337499974,space,0,0.2984024159995897,,,,,,karlaMoreno2,001,2022-11-03_15h52.41.489,Trial go no go,2022.2.4,60.40165591146299,
,,,,X,none,,,,,,,,,0,11,11,14,,,,,,,,,,,,,,,,,,,,,,,,,,,,,,,,,,160.26775058299972,160.26775058299972,160.567787375001,None,1,,,,,,,karlaMoreno2,001,2022-11-03_15h52.41.489,Trial go no go,2022.2.4,60.40165591146299,
,,,,Z,space,,,,,,,,,0,12,12,32,,,,,,,,,,,,,,,,,,,,,,,,,,,,,,,,,,161.268265875,161.268265875,161.56811791700056,space,1,0.4406939579985192,,,,,,karlaMoreno2,001,2022-11-03_15h52.41.489,Trial go no go,2022.2.4,60.40165591146299,
,,,,X,none,,,,,,,,,0,13,13,39,,,,,,,,,,,,,,,,,,,,,,,,,,,,,,,,,,162.26836320800066,162.26836320800066,162.56840225000087,None,1,,,,,,,karlaMoreno2,001,2022-11-03_15h52.41.489,Trial go no go,2022.2.4,60.40165591146299,
,,,,H,space,,,,,,,,,0,14,14,28,,,,,,,,,,,,,,,,,,,,,,,,,,,,,,,,,,163.2682143330003,163.2682143330003,163.5682469580006,space,1,0.35265433300082805,,,,,,karlaMoreno2,001,2022-11-03_15h52.41.489,Trial go no go,2022.2.4,60.40165591146299,
,,,,X,none,,,,,,,,,0,15,15,19,,,,,,,,,,,,,,,,,,,,,,,,,,,,,,,,,,164.26811179200013,164.26811179200013,164.5681348750004,None,1,,,,,,,karlaMoreno2,001,2022-11-03_15h52.41.489,Trial go no go,2022.2.4,60.40165591146299,
,,,,X,none,,,,,,,,,0,16,16,4,,,,,,,,,,,,,,,,,,,,,,,,,,,,,,,,,,165.26799983300043,165.26799983300043,165.56901545800065,None,1,,,,,,,karlaMoreno2,001,2022-11-03_15h52.41.489,Trial go no go,2022.2.4,60.40165591146299,
,,,,X,none,,,,,,,,,0,17,17,9,,,,,,,,,,,,,,,,,,,,,,,,,,,,,,,,,,166.2688693330001,166.2688693330001,166.56806795800003,None,1,,,,,,,karlaMoreno2,001,2022-11-03_15h52.41.489,Trial go no go,2022.2.4,60.40165591146299,
,,,,F,space,,,,,,,,,0,18,18,46,,,,,,,,,,,,,,,,,,,,,,,,,,,,,,,,,,167.2683563749997,167.2683563749997,167.56860187500024,space,1,0.4146617080004944,,,,,,karlaMoreno2,001,2022-11-03_15h52.41.489,Trial go no go,2022.2.4,60.40165591146299,
,,,,I,space,,,,,,,,,0,19,19,6,,,,,,,,,,,,,,,,,,,,,,,,,,,,,,,,,,168.26939929200125,168.26939929200125,168.5849990830011,space,1,0.4086579989998427,,,,,,karlaMoreno2,001,2022-11-03_15h52.41.489,Trial go no go,2022.2.4,60.40165591146299,
,,,,V,space,,,,,,,,,0,20,20,33,,,,,,,,,,,,,,,,,,,,,,,,,,,,,,,,,,169.26815966700087,169.26815966700087,169.56820287499977,space,1,0.32183237499884854,,,,,,karlaMoreno2,001,2022-11-03_15h52.41.489,Trial go no go,2022.2.4,60.40165591146299,
,,,,K,space,,,,,,,,,0,21,21,48,,,,,,,,,,,,,,,,,,,,,,,,,,,,,,,,,,170.26851966700087,170.26851966700087,170.56818620800004,space,1,0.3771139159998711,,,,,,karlaMoreno2,001,2022-11-03_15h52.41.489,Trial go no go,2022.2.4,60.40165591146299,
,,,,H,space,,,,,,,,,0,22,22,47,,,,,,,,,,,,,,,,,,,,,,,,,,,,,,,,,,171.2682149579996,171.2682149579996,171.5680968329998,space,1,0.3691234580001037,,,,,,karlaMoreno2,001,2022-11-03_15h52.41.489,Trial go no go,2022.2.4,60.40165591146299,
,,,,L,space,,,,,,,,,0,23,23,12,,,,,,,,,,,,,,,,,,,,,,,,,,,,,,,,,,172.26865912500034,172.26865912500034,172.5687018330009,space,1,0.3653973330001463,,,,,,karlaMoreno2,001,2022-11-03_15h52.41.489,Trial go no go,2022.2.4,60.40165591146299,
,,,,R,space,,,,,,,,,0,24,24,2,,,,,,,,,,,,,,,,,,,,,,,,,,,,,,,,,,173.26812258300015,173.26812258300015,173.56840437500068,space,1,0.3206809580005938,,,,,,karlaMoreno2,001,2022-11-03_15h52.41.489,Trial go no go,2022.2.4,60.40165591146299,
,,,,I,space,,,,,,,,,0,25,25,25,,,,,,,,,,,,,,,,,,,,,,,,,,,,,,,,,,174.268341125,174.268341125,174.5685320419998,space,1,0.4151612910009135,,,,,,karlaMoreno2,001,2022-11-03_15h52.41.489,Trial go no go,2022.2.4,60.40165591146299,
,,,,L,space,,,,,,,,,0,26,26,31,,,,,,,,,,,,,,,,,,,,,,,,,,,,,,,,,,175.26870725000117,175.26870725000117,175.5682454580001,space,1,0.3036981659988669,,,,,,karlaMoreno2,001,2022-11-03_15h52.41.489,Trial go no go,2022.2.4,60.40165591146299,
,,,,Z,space,,,,,,,,,0,27,27,13,,,,,,,,,,,,,,,,,,,,,,,,,,,,,,,,,,176.2685707920009,176.2685707920009,176.56853150000097,space,1,0.305056916000467,,,,,,karlaMoreno2,001,2022-11-03_15h52.41.489,Trial go no go,2022.2.4,60.40165591146299,
,,,,Y,space,,,,,,,,,0,28,28,5,,,,,,,,,,,,,,,,,,,,,,,,,,,,,,,,,,177.26895033300025,177.26895033300025,177.5686732920003,space,1,0.33455604199843947,,,,,,karlaMoreno2,001,2022-11-03_15h52.41.489,Trial go no go,2022.2.4,60.40165591146299,
,,,,R,space,,,,,,,,,0,29,29,21,,,,,,,,,,,,,,,,,,,,,,,,,,,,,,,,,,178.26862345799964,178.26862345799964,178.5682946249999,space,1,0.33457425000051444,,,,,,karlaMoreno2,001,2022-11-03_15h52.41.489,Trial go no go,2022.2.4,60.40165591146299,
,,,,K,space,,,,,,,,,0,30,30,30,,,,,,,,,,,,,,,,,,,,,,,,,,,,,,,,,,179.268258125001,179.268258125001,179.5682651670013,space,1,0.3684772910000902,,,,,,karlaMoreno2,001,2022-11-03_15h52.41.489,Trial go no go,2022.2.4,60.40165591146299,
,,,,I,space,,,,,,,,,0,31,31,43,,,,,,,,,,,,,,,,,,,,,,,,,,,,,,,,,,180.26880045799953,180.26880045799953,180.56891025000004,space,1,0.43684770799882244,,,,,,karlaMoreno2,001,2022-11-03_15h52.41.489,Trial go no go,2022.2.4,60.40165591146299,
,,,,E,space,,,,,,,,,0,32,32,38,,,,,,,,,,,,,,,,,,,,,,,,,,,,,,,,,,181.26841091700044,181.26841091700044,181.56898883299982,space,1,0.3922541240008286,,,,,,karlaMoreno2,001,2022-11-03_15h52.41.489,Trial go no go,2022.2.4,60.40165591146299,
,,,,T,space,,,,,,,,,0,33,33,22,,,,,,,,,,,,,,,,,,,,,,,,,,,,,,,,,,182.26885500000026,182.26885500000026,182.5687057080013,space,1,0.4999024999997346,,,,,,karlaMoreno2,001,2022-11-03_15h52.41.489,Trial go no go,2022.2.4,60.40165591146299,
,,,,H,space,,,,,,,,,0,34,34,10,,,,,,,,,,,,,,,,,,,,,,,,,,,,,,,,,,183.26873754200096,183.26873754200096,183.56858445800026,space,1,0.3338415830003214,,,,,,karlaMoreno2,001,2022-11-03_15h52.41.489,Trial go no go,2022.2.4,60.40165591146299,
,,,,R,space,,,,,,,,,0,35,35,40,,,,,,,,,,,,,,,,,,,,,,,,,,,,,,,,,,184.2684773330002,184.2684773330002,184.5693570830008,space,1,0.28148808299920347,,,,,,karlaMoreno2,001,2022-11-03_15h52.41.489,Trial go no go,2022.2.4,60.40165591146299,
,,,,W,space,,,,,,,,,0,36,36,0,,,,,,,,,,,,,,,,,,,,,,,,,,,,,,,,,,185.26902683300068,185.26902683300068,185.56868737500008,space,1,0.3980302079980902,,,,,,karlaMoreno2,001,2022-11-03_15h52.41.489,Trial go no go,2022.2.4,60.40165591146299,
,,,,T,space,,,,,,,,,0,37,37,41,,,,,,,,,,,,,,,,,,,,,,,,,,,,,,,,,,186.26882579199992,186.26882579199992,186.56848316700052,space,1,0.3027743330003432,,,,,,karlaMoreno2,001,2022-11-03_15h52.41.489,Trial go no go,2022.2.4,60.40165591146299,
,,,,W,space,,,,,,,,,0,38,38,18,,,,,,,,,,,,,,,,,,,,,,,,,,,,,,,,,,187.26894504200027,187.26894504200027,187.56906941700072,space,1,0.3595376249995752,,,,,,karlaMoreno2,001,2022-11-03_15h52.41.489,Trial go no go,2022.2.4,60.40165591146299,
,,,,X,none,,,,,,,,,0,39,39,34,,,,,,,,,,,,,,,,,,,,,,,,,,,,,,,,,,188.26896149999993,188.26896149999993,188.5691880000013,space,0,0.3165538329994888,,,,,,karlaMoreno2,001,2022-11-03_15h52.41.489,Trial go no go,2022.2.4,60.40165591146299,
,,,,N,space,,,,,,,,,0,40,40,16,,,,,,,,,,,,,,,,,,,,,,,,,,,,,,,,,,189.26891224999963,189.26891224999963,189.56866587500008,space,1,0.37397458300074504,,,,,,karlaMoreno2,001,2022-11-03_15h52.41.489,Trial go no go,2022.2.4,60.40165591146299,
,,,,K,space,,,,,,,,,0,41,41,11,,,,,,,,,,,,,,,,,,,,,,,,,,,,,,,,,,190.26886712499982,190.26886712499982,190.56867929200052,space,1,0.35064220799904433,,,,,,karlaMoreno2,001,2022-11-03_15h52.41.489,Trial go no go,2022.2.4,60.40165591146299,
,,,,X,none,,,,,,,,,0,42,42,24,,,,,,,,,,,,,,,,,,,,,,,,,,,,,,,,,,191.26869962500132,191.26869962500132,191.56888120800068,None,1,,,,,,,karlaMoreno2,001,2022-11-03_15h52.41.489,Trial go no go,2022.2.4,60.40165591146299,
,,,,X,none,,,,,,,,,0,43,43,49,,,,,,,,,,,,,,,,,,,,,,,,,,,,,,,,,,192.26920283300024,192.26920283300024,192.56899987500037,None,1,,,,,,,karlaMoreno2,001,2022-11-03_15h52.41.489,Trial go no go,2022.2.4,60.40165591146299,
,,,,T,space,,,,,,,,,0,44,44,3,,,,,,,,,,,,,,,,,,,,,,,,,,,,,,,,,,193.26882550000118,193.26882550000118,193.56893245799984,space,1,0.3855800420005835,,,,,,karlaMoreno2,001,2022-11-03_15h52.41.489,Trial go no go,2022.2.4,60.40165591146299,
,,,,M,space,,,,,,,,,0,45,45,17,,,,,,,,,,,,,,,,,,,,,,,,,,,,,,,,,,194.2685994170006,194.2685994170006,194.5694479169997,space,1,0.376455415998862,,,,,,karlaMoreno2,001,2022-11-03_15h52.41.489,Trial go no go,2022.2.4,60.40165591146299,
,,,,A,space,,,,,,,,,0,46,46,26,,,,,,,,,,,,,,,,,,,,,,,,,,,,,,,,,,195.26902070800134,195.26902070800134,195.5690977080012,space,1,0.45495541599848366,,,,,,karlaMoreno2,001,2022-11-03_15h52.41.489,Trial go no go,2022.2.4,60.40165591146299,
,,,,A,space,,,,,,,,,0,47,47,7,,,,,,,,,,,,,,,,,,,,,,,,,,,,,,,,,,196.26899458300068,196.26899458300068,196.5693310000006,space,1,0.3482620409995434,,,,,,karlaMoreno2,001,2022-11-03_15h52.41.489,Trial go no go,2022.2.4,60.40165591146299,
,,,,E,space,,,,,,,,,0,48,48,1,,,,,,,,,,,,,,,,,,,,,,,,,,,,,,,,,,197.2691895420012,197.2691895420012,197.5689108330007,space,1,0.32034274999932677,,,,,,karlaMoreno2,001,2022-11-03_15h52.41.489,Trial go no go,2022.2.4,60.40165591146299,
,,,,N,space,,,,,,,,,0,49,49,35,,,,,,,,,,,,,,,,,,,,,,,,,,,,,,,,,,198.2528710000006,198.2528710000006,198.55229500000132,space,1,0.29914479100079916,199.25261237500126,,,,,karlaMoreno2,001,2022-11-03_15h52.41.489,Trial go no go,2022.2.4,60.40165591146299,
,,,,,,,,,,,,,,,,,,,,,,,,,,,,,,,,,,,,,,,,,,,,,,,,,,,,,,,,,,199.25261237500126,199.7356515419997,space,2.7002999169981194,karlaMoreno2,001,2022-11-03_15h52.41.489,Trial go no go,2022.2.4,60.40165591146299,
