stimulus_prac1,corrAns_prac1,stimulus_test1,corrAns_test1,stimulus_test2,corrAns_test2,prac_trials.thisRepN,prac_trials.thisTrialN,prac_trials.thisN,prac_trials.thisIndex,test1trial.thisRepN,test1trial.thisTrialN,test1trial.thisN,test1trial.thisIndex,test2trial.thisRepN,test2trial.thisTrialN,test2trial.thisN,test2trial.thisIndex,image_welcome.started,resp_Welcome.started,resp_Welcome.keys,resp_Welcome.rt,resp_Instr_Intro.started,image_Instr_Intro.started,resp_Instr_Intro.keys,resp_Instr_Intro.rt,resp_Instr_Prac1.started,image_Instr_Prac1.started,resp_Instr_Prac1.keys,resp_Instr_Prac1.rt,text_trial_Prac1.started,resp_trial_Prac1.started,text_trial_Prac1.stopped,resp_trial_Prac1.keys,resp_trial_Prac1.corr,resp_trial_Prac1.rt,text_Feedback_Prac1.started,resp_Instr_Test1.started,image_Instr_Test1.started,resp_Instr_Test1.keys,resp_Instr_Test1.rt,text_trial_Test1.started,resp_trial_Test1.started,text_trial_Test1.stopped,resp_trial_Test1.keys,resp_trial_Test1.corr,resp_trial_Test1.rt,resp_Instr_Test2.started,image_Instr_Test2.started,resp_Instr_Test2.keys,resp_Instr_Test2.rt,text_trial_Test2.started,key_resp.started,text_trial_Test2.stopped,key_resp.keys,key_resp.corr,key_resp.rt,key_resp.stopped,resp_theEnd.started,image_theEnd.started,resp_theEnd.keys,resp_theEnd.rt,participant,session,date,expName,psychopyVersion,frameRate,
,,,,,,,,,,,,,,,,,,10.971395124999617,10.971395124999617,space,4.517959374001293,,,,,,,,,,,,,,,,,,,,,,,,,,,,,,,,,,,,,,,,,Monica2,001,2022-11-03_17h16.24.398,Trial go no go,2022.2.4,59.79266903938077,
,,,,,,,,,,,,,,,,,,,,,,15.526989791998858,16.019054583999605,space,6.091120666000279,,,,,,,,,,,,,,,,,,,,,,,,,,,,,,,,,,,,,Monica2,001,2022-11-03_17h16.24.398,Trial go no go,2022.2.4,59.79266903938077,
,,,,,,,,,,,,,,,,,,,,,,,,,,21.636033041999326,22.120017999999618,space,3.7544355410009302,,,,,,,,,,,,,,,,,,,,,,,,,,,,,,,,,Monica2,001,2022-11-03_17h16.24.398,Trial go no go,2022.2.4,59.79266903938077,
X,space,,,,,0,0,0,12,,,,,,,,,,,,,,,,,,,,,25.456532709000385,25.456532709000385,26.06898383400039,space,1,0.5541357490001246,27.437832458999765,,,,,,,,,,,,,,,,,,,,,,,,,,Monica2,001,2022-11-03_17h16.24.398,Trial go no go,2022.2.4,59.79266903938077,
X,space,,,,,0,1,1,8,,,,,,,,,,,,,,,,,,,,,28.13539745900016,28.13539745900016,28.734966041998632,space,1,0.39911858300183667,30.13512945900038,,,,,,,,,,,,,,,,,,,,,,,,,,Monica2,001,2022-11-03_17h16.24.398,Trial go no go,2022.2.4,59.79266903938077,
X,space,,,,,0,2,2,3,,,,,,,,,,,,,,,,,,,,,30.835261124999306,30.835261124999306,31.435176375000083,space,1,0.4590144159992633,32.83555820899892,,,,,,,,,,,,,,,,,,,,,,,,,,Monica2,001,2022-11-03_17h16.24.398,Trial go no go,2022.2.4,59.79266903938077,
V,none,,,,,0,3,3,9,,,,,,,,,,,,,,,,,,,,,33.53538737499912,33.53538737499912,34.135342416999265,None,1,,35.53551904199958,,,,,,,,,,,,,,,,,,,,,,,,,,Monica2,001,2022-11-03_17h16.24.398,Trial go no go,2022.2.4,59.79266903938077,
X,space,,,,,0,4,4,11,,,,,,,,,,,,,,,,,,,,,36.235528874998636,36.235528874998636,36.83557637499871,space,1,0.6558964160012692,38.23550091699872,,,,,,,,,,,,,,,,,,,,,,,,,,Monica2,001,2022-11-03_17h16.24.398,Trial go no go,2022.2.4,59.79266903938077,
X,space,,,,,0,5,5,10,,,,,,,,,,,,,,,,,,,,,38.93537404199924,38.93537404199924,39.53533066700038,space,1,0.4153546239995194,40.93558604200007,,,,,,,,,,,,,,,,,,,,,,,,,,Monica2,001,2022-11-03_17h16.24.398,Trial go no go,2022.2.4,59.79266903938077,
X,space,,,,,0,6,6,2,,,,,,,,,,,,,,,,,,,,,41.635534375000134,41.635534375000134,42.23538912499862,space,1,0.4064301240014174,43.63542099999904,,,,,,,,,,,,,,,,,,,,,,,,,,Monica2,001,2022-11-03_17h16.24.398,Trial go no go,2022.2.4,59.79266903938077,
X,space,,,,,0,7,7,0,,,,,,,,,,,,,,,,,,,,,44.33551020899904,44.33551020899904,44.93546237499868,space,1,0.4119826660007675,46.335551916999975,,,,,,,,,,,,,,,,,,,,,,,,,,Monica2,001,2022-11-03_17h16.24.398,Trial go no go,2022.2.4,59.79266903938077,
W,none,,,,,0,8,8,4,,,,,,,,,,,,,,,,,,,,,47.03567233399917,47.03567233399917,47.635696041999836,None,1,,49.03548724999928,,,,,,,,,,,,,,,,,,,,,,,,,,Monica2,001,2022-11-03_17h16.24.398,Trial go no go,2022.2.4,59.79266903938077,
X,space,,,,,0,9,9,13,,,,,,,,,,,,,,,,,,,,,49.735660833999646,49.735660833999646,50.33562429199992,space,1,0.432328332999532,51.736281458999656,,,,,,,,,,,,,,,,,,,,,,,,,,Monica2,001,2022-11-03_17h16.24.398,Trial go no go,2022.2.4,59.79266903938077,
X,space,,,,,0,10,10,5,,,,,,,,,,,,,,,,,,,,,52.4356791249993,52.4356791249993,53.036199083999236,space,1,0.4508787909999228,54.435715958999936,,,,,,,,,,,,,,,,,,,,,,,,,,Monica2,001,2022-11-03_17h16.24.398,Trial go no go,2022.2.4,59.79266903938077,
K,none,,,,,0,11,11,14,,,,,,,,,,,,,,,,,,,,,55.135828917000254,55.135828917000254,55.73568120900018,None,1,,57.13601554199886,,,,,,,,,,,,,,,,,,,,,,,,,,Monica2,001,2022-11-03_17h16.24.398,Trial go no go,2022.2.4,59.79266903938077,
X,space,,,,,0,12,12,6,,,,,,,,,,,,,,,,,,,,,57.83632229199975,57.83632229199975,58.43577645900041,space,1,0.41528858200035756,59.83568554199883,,,,,,,,,,,,,,,,,,,,,,,,,,Monica2,001,2022-11-03_17h16.24.398,Trial go no go,2022.2.4,59.79266903938077,
X,space,,,,,0,13,13,1,,,,,,,,,,,,,,,,,,,,,60.53613237500031,60.53613237500031,61.13608466699952,space,1,0.49915195800167567,62.5361077919988,,,,,,,,,,,,,,,,,,,,,,,,,,Monica2,001,2022-11-03_17h16.24.398,Trial go no go,2022.2.4,59.79266903938077,
X,space,,,,,0,14,14,7,,,,,,,,,,,,,,,,,,,,,63.236113708999255,63.236113708999255,63.83600929199929,space,1,0.4007034160022158,65.23659712500012,,,,,,,,,,,,,,,,,,,,,,,,,,Monica2,001,2022-11-03_17h16.24.398,Trial go no go,2022.2.4,59.79266903938077,
,,,,,,,,,,,,,,,,,,,,,,,,,,,,,,,,,,,,,65.93613412499872,66.40285370899983,space,2.6711472910010343,,,,,,,,,,,,,,,,,,,,,,Monica2,001,2022-11-03_17h16.24.398,Trial go no go,2022.2.4,59.79266903938077,
,,X,space,,,,,,,0,0,0,25,,,,,,,,,,,,,,,,,,,,,,,,,,,,68.64902295899992,68.64902295899992,68.95325329200023,space,1,0.602866625000388,,,,,,,,,,,,,,,,Monica2,001,2022-11-03_17h16.24.398,Trial go no go,2022.2.4,59.79266903938077,
,,X,space,,,,,,,0,1,1,2,,,,,,,,,,,,,,,,,,,,,,,,,,,,69.65288779199909,69.65288779199909,69.9530537089995,space,1,0.3009972910003853,,,,,,,,,,,,,,,,Monica2,001,2022-11-03_17h16.24.398,Trial go no go,2022.2.4,59.79266903938077,
,,X,space,,,,,,,0,2,2,0,,,,,,,,,,,,,,,,,,,,,,,,,,,,70.65321654199943,70.65321654199943,70.9530666669998,space,1,0.2490086239995435,,,,,,,,,,,,,,,,Monica2,001,2022-11-03_17h16.24.398,Trial go no go,2022.2.4,59.79266903938077,
,,X,space,,,,,,,0,3,3,12,,,,,,,,,,,,,,,,,,,,,,,,,,,,71.65370995899866,71.65370995899866,71.95327633399938,space,1,0.2614777490016422,,,,,,,,,,,,,,,,Monica2,001,2022-11-03_17h16.24.398,Trial go no go,2022.2.4,59.79266903938077,
,,X,space,,,,,,,0,4,4,26,,,,,,,,,,,,,,,,,,,,,,,,,,,,72.65309495899965,72.65309495899965,72.95320283399997,space,1,0.27372291600113385,,,,,,,,,,,,,,,,Monica2,001,2022-11-03_17h16.24.398,Trial go no go,2022.2.4,59.79266903938077,
,,X,space,,,,,,,0,5,5,47,,,,,,,,,,,,,,,,,,,,,,,,,,,,73.65384825000001,73.65384825000001,73.95318849999967,space,1,0.304785708001873,,,,,,,,,,,,,,,,Monica2,001,2022-11-03_17h16.24.398,Trial go no go,2022.2.4,59.79266903938077,
,,X,space,,,,,,,0,6,6,20,,,,,,,,,,,,,,,,,,,,,,,,,,,,74.65325487500013,74.65325487500013,74.95306070900006,space,1,0.31220083300104307,,,,,,,,,,,,,,,,Monica2,001,2022-11-03_17h16.24.398,Trial go no go,2022.2.4,59.79266903938077,
,,X,space,,,,,,,0,7,7,17,,,,,,,,,,,,,,,,,,,,,,,,,,,,75.6531767919987,75.6531767919987,75.95397566700012,space,1,0.28358812400256284,,,,,,,,,,,,,,,,Monica2,001,2022-11-03_17h16.24.398,Trial go no go,2022.2.4,59.79266903938077,
,,X,space,,,,,,,0,8,8,13,,,,,,,,,,,,,,,,,,,,,,,,,,,,76.65339241699985,76.65339241699985,76.95349899999928,space,1,0.31272279100085143,,,,,,,,,,,,,,,,Monica2,001,2022-11-03_17h16.24.398,Trial go no go,2022.2.4,59.79266903938077,
,,T,none,,,,,,,0,9,9,29,,,,,,,,,,,,,,,,,,,,,,,,,,,,77.65327591700043,77.65327591700043,77.95327208399976,None,1,,,,,,,,,,,,,,,,,Monica2,001,2022-11-03_17h16.24.398,Trial go no go,2022.2.4,59.79266903938077,
,,X,space,,,,,,,0,10,10,45,,,,,,,,,,,,,,,,,,,,,,,,,,,,78.65339216699977,78.65339216699977,78.95348575000025,space,1,0.2891287070015096,,,,,,,,,,,,,,,,Monica2,001,2022-11-03_17h16.24.398,Trial go no go,2022.2.4,59.79266903938077,
,,X,space,,,,,,,0,11,11,23,,,,,,,,,,,,,,,,,,,,,,,,,,,,79.65335174999927,79.65335174999927,79.95310087500002,space,1,0.30437437500222586,,,,,,,,,,,,,,,,Monica2,001,2022-11-03_17h16.24.398,Trial go no go,2022.2.4,59.79266903938077,
,,X,space,,,,,,,0,12,12,33,,,,,,,,,,,,,,,,,,,,,,,,,,,,80.6531116669994,80.6531116669994,80.95349679199899,space,1,0.2693502910005918,,,,,,,,,,,,,,,,Monica2,001,2022-11-03_17h16.24.398,Trial go no go,2022.2.4,59.79266903938077,
,,X,space,,,,,,,0,13,13,15,,,,,,,,,,,,,,,,,,,,,,,,,,,,81.65294675000041,81.65294675000041,81.95374279200041,space,1,0.29034520800087193,,,,,,,,,,,,,,,,Monica2,001,2022-11-03_17h16.24.398,Trial go no go,2022.2.4,59.79266903938077,
,,X,space,,,,,,,0,14,14,42,,,,,,,,,,,,,,,,,,,,,,,,,,,,82.6531228749991,82.6531228749991,82.95412033399953,space,1,0.2834741660008149,,,,,,,,,,,,,,,,Monica2,001,2022-11-03_17h16.24.398,Trial go no go,2022.2.4,59.79266903938077,
,,X,space,,,,,,,0,15,15,22,,,,,,,,,,,,,,,,,,,,,,,,,,,,83.65321500000027,83.65321500000027,83.95344929199928,space,1,0.29448137399958796,,,,,,,,,,,,,,,,Monica2,001,2022-11-03_17h16.24.398,Trial go no go,2022.2.4,59.79266903938077,
,,X,space,,,,,,,0,16,16,46,,,,,,,,,,,,,,,,,,,,,,,,,,,,84.6536909589995,84.6536909589995,84.95349479200013,space,1,0.26049616600175796,,,,,,,,,,,,,,,,Monica2,001,2022-11-03_17h16.24.398,Trial go no go,2022.2.4,59.79266903938077,
,,N,none,,,,,,,0,17,17,34,,,,,,,,,,,,,,,,,,,,,,,,,,,,85.65341999999873,85.65341999999873,85.95336750000024,None,1,,,,,,,,,,,,,,,,,Monica2,001,2022-11-03_17h16.24.398,Trial go no go,2022.2.4,59.79266903938077,
,,X,space,,,,,,,0,18,18,37,,,,,,,,,,,,,,,,,,,,,,,,,,,,86.65363979199901,86.65363979199901,86.95349495899973,space,1,0.375130333000925,,,,,,,,,,,,,,,,Monica2,001,2022-11-03_17h16.24.398,Trial go no go,2022.2.4,59.79266903938077,
,,Y,none,,,,,,,0,19,19,14,,,,,,,,,,,,,,,,,,,,,,,,,,,,87.6534624169999,87.6534624169999,87.95341445899976,None,1,,,,,,,,,,,,,,,,,Monica2,001,2022-11-03_17h16.24.398,Trial go no go,2022.2.4,59.79266903938077,
,,X,space,,,,,,,0,20,20,6,,,,,,,,,,,,,,,,,,,,,,,,,,,,88.65343541699986,88.65343541699986,88.9540896669987,space,1,0.29853916600040975,,,,,,,,,,,,,,,,Monica2,001,2022-11-03_17h16.24.398,Trial go no go,2022.2.4,59.79266903938077,
,,X,space,,,,,,,0,21,21,28,,,,,,,,,,,,,,,,,,,,,,,,,,,,89.65348670899948,89.65348670899948,89.95367591699869,space,1,0.3361612080007035,,,,,,,,,,,,,,,,Monica2,001,2022-11-03_17h16.24.398,Trial go no go,2022.2.4,59.79266903938077,
,,X,space,,,,,,,0,22,22,16,,,,,,,,,,,,,,,,,,,,,,,,,,,,90.65403154199885,90.65403154199885,90.95345620899934,space,1,0.27476337400003104,,,,,,,,,,,,,,,,Monica2,001,2022-11-03_17h16.24.398,Trial go no go,2022.2.4,59.79266903938077,
,,X,space,,,,,,,0,23,23,48,,,,,,,,,,,,,,,,,,,,,,,,,,,,91.6535640839993,91.6535640839993,91.95386866700028,space,1,0.2896604160014249,,,,,,,,,,,,,,,,Monica2,001,2022-11-03_17h16.24.398,Trial go no go,2022.2.4,59.79266903938077,
,,X,space,,,,,,,0,24,24,18,,,,,,,,,,,,,,,,,,,,,,,,,,,,92.65332108399889,92.65332108399889,92.95354124999903,space,1,0.32275720800134877,,,,,,,,,,,,,,,,Monica2,001,2022-11-03_17h16.24.398,Trial go no go,2022.2.4,59.79266903938077,
,,X,space,,,,,,,0,25,25,8,,,,,,,,,,,,,,,,,,,,,,,,,,,,93.65355875000023,93.65355875000023,93.95372674999999,space,1,0.2722319999993488,,,,,,,,,,,,,,,,Monica2,001,2022-11-03_17h16.24.398,Trial go no go,2022.2.4,59.79266903938077,
,,X,space,,,,,,,0,26,26,7,,,,,,,,,,,,,,,,,,,,,,,,,,,,94.65346187499927,94.65346187499927,94.95401904199935,space,1,0.44860370800051896,,,,,,,,,,,,,,,,Monica2,001,2022-11-03_17h16.24.398,Trial go no go,2022.2.4,59.79266903938077,
,,X,space,,,,,,,0,27,27,41,,,,,,,,,,,,,,,,,,,,,,,,,,,,95.65347974999895,95.65347974999895,95.95345133400042,space,1,0.3085627910004405,,,,,,,,,,,,,,,,Monica2,001,2022-11-03_17h16.24.398,Trial go no go,2022.2.4,59.79266903938077,
,,F,none,,,,,,,0,28,28,44,,,,,,,,,,,,,,,,,,,,,,,,,,,,96.65334333399915,96.65334333399915,96.95377516699955,None,1,,,,,,,,,,,,,,,,,Monica2,001,2022-11-03_17h16.24.398,Trial go no go,2022.2.4,59.79266903938077,
,,X,space,,,,,,,0,29,29,35,,,,,,,,,,,,,,,,,,,,,,,,,,,,97.65367983400029,97.65367983400029,97.95329841700004,space,1,0.2657958320014586,,,,,,,,,,,,,,,,Monica2,001,2022-11-03_17h16.24.398,Trial go no go,2022.2.4,59.79266903938077,
,,X,space,,,,,,,0,30,30,31,,,,,,,,,,,,,,,,,,,,,,,,,,,,98.65364220899937,98.65364220899937,98.95370712499971,space,1,0.26741362400207436,,,,,,,,,,,,,,,,Monica2,001,2022-11-03_17h16.24.398,Trial go no go,2022.2.4,59.79266903938077,
,,X,space,,,,,,,0,31,31,3,,,,,,,,,,,,,,,,,,,,,,,,,,,,99.65376170899981,99.65376170899981,99.95436816700021,space,1,0.2756520830007503,,,,,,,,,,,,,,,,Monica2,001,2022-11-03_17h16.24.398,Trial go no go,2022.2.4,59.79266903938077,
,,X,space,,,,,,,0,32,32,40,,,,,,,,,,,,,,,,,,,,,,,,,,,,100.65387337500033,100.65387337500033,100.95399858400015,space,1,0.29450974900100846,,,,,,,,,,,,,,,,Monica2,001,2022-11-03_17h16.24.398,Trial go no go,2022.2.4,59.79266903938077,
,,V,none,,,,,,,0,33,33,4,,,,,,,,,,,,,,,,,,,,,,,,,,,,101.65367033399889,101.65367033399889,101.953959167,space,0,0.26522312400084047,,,,,,,,,,,,,,,,Monica2,001,2022-11-03_17h16.24.398,Trial go no go,2022.2.4,59.79266903938077,
,,X,space,,,,,,,0,34,34,27,,,,,,,,,,,,,,,,,,,,,,,,,,,,102.65384062500016,102.65384062500016,102.95401154199863,space,1,0.33840904099997715,,,,,,,,,,,,,,,,Monica2,001,2022-11-03_17h16.24.398,Trial go no go,2022.2.4,59.79266903938077,
,,X,space,,,,,,,0,35,35,32,,,,,,,,,,,,,,,,,,,,,,,,,,,,103.65471216699916,103.65471216699916,103.95438062500034,space,1,0.29803304100096284,,,,,,,,,,,,,,,,Monica2,001,2022-11-03_17h16.24.398,Trial go no go,2022.2.4,59.79266903938077,
,,K,none,,,,,,,0,36,36,19,,,,,,,,,,,,,,,,,,,,,,,,,,,,104.65380262500003,104.65380262500003,104.95382591700036,None,1,,,,,,,,,,,,,,,,,Monica2,001,2022-11-03_17h16.24.398,Trial go no go,2022.2.4,59.79266903938077,
,,X,space,,,,,,,0,37,37,36,,,,,,,,,,,,,,,,,,,,,,,,,,,,105.65397829199901,105.65397829199901,105.9539638339993,space,1,0.2737066660010896,,,,,,,,,,,,,,,,Monica2,001,2022-11-03_17h16.24.398,Trial go no go,2022.2.4,59.79266903938077,
,,E,none,,,,,,,0,38,38,49,,,,,,,,,,,,,,,,,,,,,,,,,,,,106.65398745899984,106.65398745899984,106.95427999999993,None,1,,,,,,,,,,,,,,,,,Monica2,001,2022-11-03_17h16.24.398,Trial go no go,2022.2.4,59.79266903938077,
,,X,space,,,,,,,0,39,39,43,,,,,,,,,,,,,,,,,,,,,,,,,,,,107.65440275000037,107.65440275000037,107.95451104200038,space,1,0.2867208320021746,,,,,,,,,,,,,,,,Monica2,001,2022-11-03_17h16.24.398,Trial go no go,2022.2.4,59.79266903938077,
,,W,none,,,,,,,0,40,40,9,,,,,,,,,,,,,,,,,,,,,,,,,,,,108.65408533399932,108.65408533399932,108.95379737499934,None,1,,,,,,,,,,,,,,,,,Monica2,001,2022-11-03_17h16.24.398,Trial go no go,2022.2.4,59.79266903938077,
,,X,space,,,,,,,0,41,41,10,,,,,,,,,,,,,,,,,,,,,,,,,,,,109.65400687500005,109.65400687500005,109.95424420899872,space,1,0.28959487400061334,,,,,,,,,,,,,,,,Monica2,001,2022-11-03_17h16.24.398,Trial go no go,2022.2.4,59.79266903938077,
,,X,space,,,,,,,0,42,42,38,,,,,,,,,,,,,,,,,,,,,,,,,,,,110.65405145899967,110.65405145899967,110.95406483399893,space,1,0.31001454100078263,,,,,,,,,,,,,,,,Monica2,001,2022-11-03_17h16.24.398,Trial go no go,2022.2.4,59.79266903938077,
,,X,space,,,,,,,0,43,43,30,,,,,,,,,,,,,,,,,,,,,,,,,,,,111.65406433399949,111.65406433399949,111.95401020899953,space,1,0.3179555410006287,,,,,,,,,,,,,,,,Monica2,001,2022-11-03_17h16.24.398,Trial go no go,2022.2.4,59.79266903938077,
,,M,none,,,,,,,0,44,44,39,,,,,,,,,,,,,,,,,,,,,,,,,,,,112.6542869169989,112.6542869169989,112.9541196249993,None,1,,,,,,,,,,,,,,,,,Monica2,001,2022-11-03_17h16.24.398,Trial go no go,2022.2.4,59.79266903938077,
,,H,none,,,,,,,0,45,45,24,,,,,,,,,,,,,,,,,,,,,,,,,,,,113.65409554199869,113.65409554199869,113.95412604199919,None,1,,,,,,,,,,,,,,,,,Monica2,001,2022-11-03_17h16.24.398,Trial go no go,2022.2.4,59.79266903938077,
,,X,space,,,,,,,0,46,46,5,,,,,,,,,,,,,,,,,,,,,,,,,,,,114.65421512499961,114.65421512499961,114.95419983399916,space,1,0.3791495820005366,,,,,,,,,,,,,,,,Monica2,001,2022-11-03_17h16.24.398,Trial go no go,2022.2.4,59.79266903938077,
,,X,space,,,,,,,0,47,47,21,,,,,,,,,,,,,,,,,,,,,,,,,,,,115.65404533400033,115.65404533400033,115.95416795900019,space,1,0.35587270700125373,,,,,,,,,,,,,,,,Monica2,001,2022-11-03_17h16.24.398,Trial go no go,2022.2.4,59.79266903938077,
,,X,space,,,,,,,0,48,48,11,,,,,,,,,,,,,,,,,,,,,,,,,,,,116.65401441699942,116.65401441699942,116.95410762499887,space,1,0.27847245799966913,,,,,,,,,,,,,,,,Monica2,001,2022-11-03_17h16.24.398,Trial go no go,2022.2.4,59.79266903938077,
,,X,space,,,,,,,0,49,49,1,,,,,,,,,,,,,,,,,,,,,,,,,,,,117.65418904199942,117.65418904199942,117.95515595899997,space,1,0.28842695800085494,,,,,,,,,,,,,,,,Monica2,001,2022-11-03_17h16.24.398,Trial go no go,2022.2.4,59.79266903938077,
,,,,,,,,,,,,,,,,,,,,,,,,,,,,,,,,,,,,,,,,,,,,,,,118.6543424169995,119.12085041699902,space,6.348757874000512,,,,,,,,,,,,Monica2,001,2022-11-03_17h16.24.398,Trial go no go,2022.2.4,59.79266903938077,
,,,,W,space,,,,,,,,,0,0,0,18,,,,,,,,,,,,,,,,,,,,,,,,,,,,,,,,,,125.03431649999948,125.03431649999948,125.33797799999957,space,1,0.7203203320004832,,,,,,Monica2,001,2022-11-03_17h16.24.398,Trial go no go,2022.2.4,59.79266903938077,
,,,,Z,space,,,,,,,,,0,1,1,32,,,,,,,,,,,,,,,,,,,,,,,,,,,,,,,,,,126.03751158399973,126.03751158399973,126.33757962500022,space,1,0.27265841600092244,,,,,,Monica2,001,2022-11-03_17h16.24.398,Trial go no go,2022.2.4,59.79266903938077,
,,,,E,space,,,,,,,,,0,2,2,1,,,,,,,,,,,,,,,,,,,,,,,,,,,,,,,,,,127.03771979199882,127.03771979199882,127.33754591700017,space,1,0.26148129100147344,,,,,,Monica2,001,2022-11-03_17h16.24.398,Trial go no go,2022.2.4,59.79266903938077,
,,,,V,space,,,,,,,,,0,3,3,15,,,,,,,,,,,,,,,,,,,,,,,,,,,,,,,,,,128.03813724999964,128.03813724999964,128.3377118749995,space,1,0.2752799990012136,,,,,,Monica2,001,2022-11-03_17h16.24.398,Trial go no go,2022.2.4,59.79266903938077,
,,,,X,none,,,,,,,,,0,4,4,49,,,,,,,,,,,,,,,,,,,,,,,,,,,,,,,,,,129.03766883400021,129.03766883400021,129.33860112500042,space,0,0.2821927080003661,,,,,,Monica2,001,2022-11-03_17h16.24.398,Trial go no go,2022.2.4,59.79266903938077,
,,,,I,space,,,,,,,,,0,5,5,25,,,,,,,,,,,,,,,,,,,,,,,,,,,,,,,,,,130.03796349999902,130.03796349999902,130.33815945899914,space,1,0.3072510410001996,,,,,,Monica2,001,2022-11-03_17h16.24.398,Trial go no go,2022.2.4,59.79266903938077,
,,,,R,space,,,,,,,,,0,6,6,40,,,,,,,,,,,,,,,,,,,,,,,,,,,,,,,,,,131.0375595839996,131.0375595839996,131.33872808399974,space,1,0.2842835820010805,,,,,,Monica2,001,2022-11-03_17h16.24.398,Trial go no go,2022.2.4,59.79266903938077,
,,,,R,space,,,,,,,,,0,7,7,2,,,,,,,,,,,,,,,,,,,,,,,,,,,,,,,,,,132.03789529200003,132.03789529200003,132.3383671669999,space,1,0.2878851660007058,,,,,,Monica2,001,2022-11-03_17h16.24.398,Trial go no go,2022.2.4,59.79266903938077,
,,,,F,space,,,,,,,,,0,8,8,46,,,,,,,,,,,,,,,,,,,,,,,,,,,,,,,,,,133.03820858399922,133.03820858399922,133.33755787500013,space,1,0.30579600000237406,,,,,,Monica2,001,2022-11-03_17h16.24.398,Trial go no go,2022.2.4,59.79266903938077,
,,,,K,space,,,,,,,,,0,9,9,30,,,,,,,,,,,,,,,,,,,,,,,,,,,,,,,,,,134.03809095900033,134.03809095900033,134.33765099999982,space,1,0.47382749900134513,,,,,,Monica2,001,2022-11-03_17h16.24.398,Trial go no go,2022.2.4,59.79266903938077,
,,,,W,space,,,,,,,,,0,10,10,0,,,,,,,,,,,,,,,,,,,,,,,,,,,,,,,,,,135.03730816699863,135.03730816699863,135.33764758399957,space,1,0.31536149900057353,,,,,,Monica2,001,2022-11-03_17h16.24.398,Trial go no go,2022.2.4,59.79266903938077,
,,,,K,space,,,,,,,,,0,11,11,11,,,,,,,,,,,,,,,,,,,,,,,,,,,,,,,,,,136.03834920899862,136.03834920899862,136.3387942089994,space,1,0.324072833000173,,,,,,Monica2,001,2022-11-03_17h16.24.398,Trial go no go,2022.2.4,59.79266903938077,
,,,,Z,space,,,,,,,,,0,12,12,13,,,,,,,,,,,,,,,,,,,,,,,,,,,,,,,,,,137.03800274999958,137.03800274999958,137.33802808399923,space,1,0.32160641600057716,,,,,,Monica2,001,2022-11-03_17h16.24.398,Trial go no go,2022.2.4,59.79266903938077,
,,,,M,space,,,,,,,,,0,13,13,36,,,,,,,,,,,,,,,,,,,,,,,,,,,,,,,,,,138.03823741700035,138.03823741700035,138.3383780839995,space,1,0.29418162400179426,,,,,,Monica2,001,2022-11-03_17h16.24.398,Trial go no go,2022.2.4,59.79266903938077,
,,,,X,none,,,,,,,,,0,14,14,19,,,,,,,,,,,,,,,,,,,,,,,,,,,,,,,,,,139.0380622499997,139.0380622499997,139.33809258399924,space,0,0.31282254100187856,,,,,,Monica2,001,2022-11-03_17h16.24.398,Trial go no go,2022.2.4,59.79266903938077,
,,,,Y,space,,,,,,,,,0,15,15,23,,,,,,,,,,,,,,,,,,,,,,,,,,,,,,,,,,140.0383332499987,140.0383332499987,140.33806266699867,space,1,0.32208733200059214,,,,,,Monica2,001,2022-11-03_17h16.24.398,Trial go no go,2022.2.4,59.79266903938077,
,,,,Y,space,,,,,,,,,0,16,16,42,,,,,,,,,,,,,,,,,,,,,,,,,,,,,,,,,,141.0379142919992,141.0379142919992,141.33833991699976,space,1,0.3048967079994327,,,,,,Monica2,001,2022-11-03_17h16.24.398,Trial go no go,2022.2.4,59.79266903938077,
,,,,A,space,,,,,,,,,0,17,17,26,,,,,,,,,,,,,,,,,,,,,,,,,,,,,,,,,,142.03797250000025,142.03797250000025,142.33848720899914,space,1,0.29450070800157846,,,,,,Monica2,001,2022-11-03_17h16.24.398,Trial go no go,2022.2.4,59.79266903938077,
,,,,X,none,,,,,,,,,0,18,18,9,,,,,,,,,,,,,,,,,,,,,,,,,,,,,,,,,,143.03797266699985,143.03797266699985,143.33825154199985,None,1,,,,,,,Monica2,001,2022-11-03_17h16.24.398,Trial go no go,2022.2.4,59.79266903938077,
,,,,F,space,,,,,,,,,0,19,19,27,,,,,,,,,,,,,,,,,,,,,,,,,,,,,,,,,,144.03822587499963,144.03822587499963,144.33793970899933,space,1,0.3087431660005677,,,,,,Monica2,001,2022-11-03_17h16.24.398,Trial go no go,2022.2.4,59.79266903938077,
,,,,X,none,,,,,,,,,0,20,20,39,,,,,,,,,,,,,,,,,,,,,,,,,,,,,,,,,,145.03805470899897,145.03805470899897,145.33894429199972,None,1,,,,,,,Monica2,001,2022-11-03_17h16.24.398,Trial go no go,2022.2.4,59.79266903938077,
,,,,R,space,,,,,,,,,0,21,21,21,,,,,,,,,,,,,,,,,,,,,,,,,,,,,,,,,,146.0383861249993,146.0383861249993,146.3383345839993,space,1,0.3126065409996954,,,,,,Monica2,001,2022-11-03_17h16.24.398,Trial go no go,2022.2.4,59.79266903938077,
,,,,N,space,,,,,,,,,0,22,22,35,,,,,,,,,,,,,,,,,,,,,,,,,,,,,,,,,,147.03823787500005,147.03823787500005,147.33813454200026,space,1,0.3329877070009388,,,,,,Monica2,001,2022-11-03_17h16.24.398,Trial go no go,2022.2.4,59.79266903938077,
,,,,N,space,,,,,,,,,0,23,23,16,,,,,,,,,,,,,,,,,,,,,,,,,,,,,,,,,,148.0381949169987,148.0381949169987,148.338325834,space,1,0.34244079100062663,,,,,,Monica2,001,2022-11-03_17h16.24.398,Trial go no go,2022.2.4,59.79266903938077,
,,,,X,none,,,,,,,,,0,24,24,24,,,,,,,,,,,,,,,,,,,,,,,,,,,,,,,,,,149.03854829199918,149.03854829199918,149.33861499999875,None,1,,,,,,,Monica2,001,2022-11-03_17h16.24.398,Trial go no go,2022.2.4,59.79266903938077,
,,,,Y,space,,,,,,,,,0,25,25,5,,,,,,,,,,,,,,,,,,,,,,,,,,,,,,,,,,150.0384877919987,150.0384877919987,150.3382339589989,space,1,0.36826783300057286,,,,,,Monica2,001,2022-11-03_17h16.24.398,Trial go no go,2022.2.4,59.79266903938077,
,,,,X,none,,,,,,,,,0,26,26,29,,,,,,,,,,,,,,,,,,,,,,,,,,,,,,,,,,151.03830145899883,151.03830145899883,151.33831287499925,None,1,,,,,,,Monica2,001,2022-11-03_17h16.24.398,Trial go no go,2022.2.4,59.79266903938077,
,,,,F,space,,,,,,,,,0,27,27,8,,,,,,,,,,,,,,,,,,,,,,,,,,,,,,,,,,152.03826124999978,152.03826124999978,152.33839312499913,space,1,0.36843574900012754,,,,,,Monica2,001,2022-11-03_17h16.24.398,Trial go no go,2022.2.4,59.79266903938077,
,,,,E,space,,,,,,,,,0,28,28,20,,,,,,,,,,,,,,,,,,,,,,,,,,,,,,,,,,153.0382720839989,153.0382720839989,153.3382746669995,space,1,0.37549358300020685,,,,,,Monica2,001,2022-11-03_17h16.24.398,Trial go no go,2022.2.4,59.79266903938077,
,,,,H,space,,,,,,,,,0,29,29,10,,,,,,,,,,,,,,,,,,,,,,,,,,,,,,,,,,154.03841112499867,154.03841112499867,154.33849320899935,space,1,0.3108269990007102,,,,,,Monica2,001,2022-11-03_17h16.24.398,Trial go no go,2022.2.4,59.79266903938077,
,,,,T,space,,,,,,,,,0,30,30,22,,,,,,,,,,,,,,,,,,,,,,,,,,,,,,,,,,155.0383110419989,155.0383110419989,155.33833841699925,space,1,0.34446008300074027,,,,,,Monica2,001,2022-11-03_17h16.24.398,Trial go no go,2022.2.4,59.79266903938077,
,,,,T,space,,,,,,,,,0,31,31,3,,,,,,,,,,,,,,,,,,,,,,,,,,,,,,,,,,156.0385932499994,156.0385932499994,156.33829349999905,space,1,0.35770516600132396,,,,,,Monica2,001,2022-11-03_17h16.24.398,Trial go no go,2022.2.4,59.79266903938077,
,,,,E,space,,,,,,,,,0,32,32,38,,,,,,,,,,,,,,,,,,,,,,,,,,,,,,,,,,157.03841691699927,157.03841691699927,157.33876741699896,space,1,0.278291041000557,,,,,,Monica2,001,2022-11-03_17h16.24.398,Trial go no go,2022.2.4,59.79266903938077,
,,,,H,space,,,,,,,,,0,33,33,47,,,,,,,,,,,,,,,,,,,,,,,,,,,,,,,,,,158.03854720900017,158.03854720900017,158.33863341699907,space,1,0.31485241600057634,,,,,,Monica2,001,2022-11-03_17h16.24.398,Trial go no go,2022.2.4,59.79266903938077,
,,,,W,space,,,,,,,,,0,34,34,37,,,,,,,,,,,,,,,,,,,,,,,,,,,,,,,,,,159.03848812499928,159.03848812499928,159.3387387089988,space,1,0.38436487400031183,,,,,,Monica2,001,2022-11-03_17h16.24.398,Trial go no go,2022.2.4,59.79266903938077,
,,,,X,none,,,,,,,,,0,35,35,14,,,,,,,,,,,,,,,,,,,,,,,,,,,,,,,,,,160.03835904199877,160.03835904199877,160.33864829199956,space,0,0.2714769160011201,,,,,,Monica2,001,2022-11-03_17h16.24.398,Trial go no go,2022.2.4,59.79266903938077,
,,,,M,space,,,,,,,,,0,36,36,17,,,,,,,,,,,,,,,,,,,,,,,,,,,,,,,,,,161.03881974999967,161.03881974999967,161.33885866699893,space,1,0.3152483330013638,,,,,,Monica2,001,2022-11-03_17h16.24.398,Trial go no go,2022.2.4,59.79266903938077,
,,,,I,space,,,,,,,,,0,37,37,6,,,,,,,,,,,,,,,,,,,,,,,,,,,,,,,,,,162.03859866699895,162.03859866699895,162.3385507089988,space,1,0.33760733300005086,,,,,,Monica2,001,2022-11-03_17h16.24.398,Trial go no go,2022.2.4,59.79266903938077,
,,,,L,space,,,,,,,,,0,38,38,31,,,,,,,,,,,,,,,,,,,,,,,,,,,,,,,,,,163.03875233399958,163.03875233399958,163.33872058399902,space,1,0.2982901250015857,,,,,,Monica2,001,2022-11-03_17h16.24.398,Trial go no go,2022.2.4,59.79266903938077,
,,,,V,space,,,,,,,,,0,39,39,33,,,,,,,,,,,,,,,,,,,,,,,,,,,,,,,,,,164.03874025000005,164.03874025000005,164.33885233399997,space,1,0.3205483740021009,,,,,,Monica2,001,2022-11-03_17h16.24.398,Trial go no go,2022.2.4,59.79266903938077,
,,,,T,space,,,,,,,,,0,40,40,41,,,,,,,,,,,,,,,,,,,,,,,,,,,,,,,,,,165.02227179199872,165.02227179199872,165.3219516249992,space,1,0.3377247910011647,166.02185937499962,,,,,Monica2,001,2022-11-03_17h16.24.398,Trial go no go,2022.2.4,59.79266903938077,
,,,,K,space,,,,,,,,,0,41,41,48,,,,,,,,,,,,,,,,,,,,,,,,,,,,,,,,,,166.02185937499962,166.02185937499962,166.32337658399956,space,1,0.432360624001376,167.02221462499983,,,,,Monica2,001,2022-11-03_17h16.24.398,Trial go no go,2022.2.4,59.79266903938077,
,,,,X,none,,,,,,,,,0,42,42,4,,,,,,,,,,,,,,,,,,,,,,,,,,,,,,,,,,167.02221462499983,167.02221462499983,167.32212437499948,None,1,,168.02191787499942,,,,,Monica2,001,2022-11-03_17h16.24.398,Trial go no go,2022.2.4,59.79266903938077,
,,,,L,space,,,,,,,,,0,43,43,12,,,,,,,,,,,,,,,,,,,,,,,,,,,,,,,,,,168.02191787499942,168.02191787499942,168.3219337089995,space,1,0.3802544160025718,,,,,,Monica2,001,2022-11-03_17h16.24.398,Trial go no go,2022.2.4,59.79266903938077,
,,,,X,none,,,,,,,,,0,44,44,44,,,,,,,,,,,,,,,,,,,,,,,,,,,,,,,,,,169.02218254199943,169.02218254199943,169.32217825000043,None,1,,170.02195500000016,,,,,Monica2,001,2022-11-03_17h16.24.398,Trial go no go,2022.2.4,59.79266903938077,
,,,,X,none,,,,,,,,,0,45,45,34,,,,,,,,,,,,,,,,,,,,,,,,,,,,,,,,,,170.02195500000016,170.02195500000016,170.32192229199973,None,1,,171.02205508400039,,,,,Monica2,001,2022-11-03_17h16.24.398,Trial go no go,2022.2.4,59.79266903938077,
,,,,A,space,,,,,,,,,0,46,46,7,,,,,,,,,,,,,,,,,,,,,,,,,,,,,,,,,,171.02205508400039,171.02205508400039,171.32230454199998,space,1,0.3692502490011975,172.02233816700027,,,,,Monica2,001,2022-11-03_17h16.24.398,Trial go no go,2022.2.4,59.79266903938077,
,,,,I,space,,,,,,,,,0,47,47,43,,,,,,,,,,,,,,,,,,,,,,,,,,,,,,,,,,172.02233816700027,172.02233816700027,172.32230424999943,space,1,0.301631874001032,173.0221750419987,,,,,Monica2,001,2022-11-03_17h16.24.398,Trial go no go,2022.2.4,59.79266903938077,
,,,,H,space,,,,,,,,,0,48,48,28,,,,,,,,,,,,,,,,,,,,,,,,,,,,,,,,,,173.0221750419987,173.0221750419987,173.32307987499917,space,1,0.28328162400066503,174.0221673750002,,,,,Monica2,001,2022-11-03_17h16.24.398,Trial go no go,2022.2.4,59.79266903938077,
,,,,A,space,,,,,,,,,0,49,49,45,,,,,,,,,,,,,,,,,,,,,,,,,,,,,,,,,,174.0221673750002,174.0221673750002,174.32202495899946,space,1,0.3148711240010016,175.02203199999894,,,,,Monica2,001,2022-11-03_17h16.24.398,Trial go no go,2022.2.4,59.79266903938077,
,,,,,,,,,,,,,,,,,,,,,,,,,,,,,,,,,,,,,,,,,,,,,,,,,,,,,,,,,,175.02203199999894,175.50598174999868,space,1.5830197499999485,Monica2,001,2022-11-03_17h16.24.398,Trial go no go,2022.2.4,59.79266903938077,
