stimulus_prac1,corrAns_prac1,stimulus_test1,corrAns_test1,stimulus_test2,corrAns_test2,prac_trials.thisRepN,prac_trials.thisTrialN,prac_trials.thisN,prac_trials.thisIndex,test1trial.thisRepN,test1trial.thisTrialN,test1trial.thisN,test1trial.thisIndex,test2trial.thisRepN,test2trial.thisTrialN,test2trial.thisN,test2trial.thisIndex,image_welcome.started,resp_Welcome.started,resp_Welcome.keys,resp_Welcome.rt,resp_Instr_Intro.started,image_Instr_Intro.started,resp_Instr_Intro.keys,resp_Instr_Intro.rt,resp_Instr_Prac1.started,image_Instr_Prac1.started,resp_Instr_Prac1.keys,resp_Instr_Prac1.rt,text_trial_Prac1.started,resp_trial_Prac1.started,text_trial_Prac1.stopped,resp_trial_Prac1.keys,resp_trial_Prac1.corr,resp_trial_Prac1.rt,text_Feedback_Prac1.started,text_Feedback_Prac1.stopped,resp_Instr_Test1.started,image_Instr_Test1.started,resp_Instr_Test1.keys,resp_Instr_Test1.rt,text_trial_Test1.started,resp_trial_Test1.started,text_trial_Test1.stopped,resp_trial_Test1.keys,resp_trial_Test1.corr,resp_trial_Test1.rt,resp_trial_Test1.stopped,resp_Instr_Test2.started,image_Instr_Test2.started,resp_Instr_Test2.keys,resp_Instr_Test2.rt,text_trial_Test2.started,key_resp.started,text_trial_Test2.stopped,key_resp.keys,key_resp.corr,key_resp.rt,key_resp.stopped,resp_theEnd.started,image_theEnd.started,resp_theEnd.keys,resp_theEnd.rt,participant,session,date,expName,psychopyVersion,frameRate,
,,,,,,,,,,,,,,,,,,17.886399625102058,17.886399625102058,space,14.434735707938671,,,,,,,,,,,,,,,,,,,,,,,,,,,,,,,,,,,,,,,,,,,SuryGlez,001,2022-10-27_11h03.32.631,Trial go no go,2022.2.4,None,
,,,,,,,,,,,,,,,,,,,,,,32.35515070799738,32.8613259580452,space,15.925029499921948,,,,,,,,,,,,,,,,,,,,,,,,,,,,,,,,,,,,,,,SuryGlez,001,2022-10-27_11h03.32.631,Trial go no go,2022.2.4,None,
,,,,,,,,,,,,,,,,,,,,,,,,,,48.306481749983504,48.810626707971096,space,11.346971416147426,,,,,,,,,,,,,,,,,,,,,,,,,,,,,,,,,,,SuryGlez,001,2022-10-27_11h03.32.631,Trial go no go,2022.2.4,None,
X,space,,,,,0,0,0,10,,,,,,,,,,,,,,,,,,,,,59.73100937507115,59.73100937507115,60.34333704202436,space,1,0.839331999886781,61.67698116693646,,,,,,,,,,,,,,,,,,,,,,,,,,,,SuryGlez,001,2022-10-27_11h03.32.631,Trial go no go,2022.2.4,None,
X,space,,,,,0,1,1,3,,,,,,,,,,,,,,,,,,,,,62.37249633297324,62.37249633297324,62.97260208311491,space,1,0.57260354119353,64.37242120807059,65.076614666963,,,,,,,,,,,,,,,,,,,,,,,,,,,SuryGlez,001,2022-10-27_11h03.32.631,Trial go no go,2022.2.4,None,
V,none,,,,,0,2,2,9,,,,,,,,,,,,,,,,,,,,,65.076614666963,65.076614666963,65.69310675002635,None,1,,67.09328804211691,,,,,,,,,,,,,,,,,,,,,,,,,,,,SuryGlez,001,2022-10-27_11h03.32.631,Trial go no go,2022.2.4,None,
X,space,,,,,0,3,3,5,,,,,,,,,,,,,,,,,,,,,67.77209608303383,67.77209608303383,68.37227399996482,space,1,0.5646533749531955,69.77227883297019,70.47713487502187,,,,,,,,,,,,,,,,,,,,,,,,,,,SuryGlez,001,2022-10-27_11h03.32.631,Trial go no go,2022.2.4,None,
K,none,,,,,0,4,4,14,,,,,,,,,,,,,,,,,,,,,70.47713487502187,70.47713487502187,71.51290120813064,None,1,,72.47623945795931,,,,,,,,,,,,,,,,,,,,,,,,,,,,SuryGlez,001,2022-10-27_11h03.32.631,Trial go no go,2022.2.4,None,
X,space,,,,,0,5,5,7,,,,,,,,,,,,,,,,,,,,,73.19306491711177,73.19306491711177,73.8094290420413,space,1,0.6261708741076291,75.19339670799673,,,,,,,,,,,,,,,,,,,,,,,,,,,,SuryGlez,001,2022-10-27_11h03.32.631,Trial go no go,2022.2.4,None,
X,space,,,,,0,6,6,13,,,,,,,,,,,,,,,,,,,,,75.87624195800163,75.87624195800163,76.47665129206143,space,1,0.5976071669720113,77.87627179198898,,,,,,,,,,,,,,,,,,,,,,,,,,,,SuryGlez,001,2022-10-27_11h03.32.631,Trial go no go,2022.2.4,None,
X,space,,,,,0,7,7,12,,,,,,,,,,,,,,,,,,,,,78.59293762501329,78.59293762501329,79.20955887506716,space,1,0.6065815000329167,80.59343591704965,,,,,,,,,,,,,,,,,,,,,,,,,,,,SuryGlez,001,2022-10-27_11h03.32.631,Trial go no go,2022.2.4,None,
X,space,,,,,0,8,8,6,,,,,,,,,,,,,,,,,,,,,81.27648525009863,81.27648525009863,81.87581133306958,space,1,0.45061691594310105,83.27595383301377,,,,,,,,,,,,,,,,,,,,,,,,,,,,SuryGlez,001,2022-10-27_11h03.32.631,Trial go no go,2022.2.4,None,
X,space,,,,,0,9,9,8,,,,,,,,,,,,,,,,,,,,,83.99314462509938,83.99314462509938,84.60884004202671,space,1,0.4993400410749018,85.9924844999332,,,,,,,,,,,,,,,,,,,,,,,,,,,,SuryGlez,001,2022-10-27_11h03.32.631,Trial go no go,2022.2.4,None,
W,none,,,,,0,10,10,4,,,,,,,,,,,,,,,,,,,,,86.67545683309436,86.67545683309436,87.2752118750941,None,1,,88.67581879207864,,,,,,,,,,,,,,,,,,,,,,,,,,,,SuryGlez,001,2022-10-27_11h03.32.631,Trial go no go,2022.2.4,None,
X,space,,,,,0,11,11,2,,,,,,,,,,,,,,,,,,,,,89.39226345811039,89.39226345811039,90.00938670802861,space,1,0.4363188329152763,91.39212020812556,,,,,,,,,,,,,,,,,,,,,,,,,,,,SuryGlez,001,2022-10-27_11h03.32.631,Trial go no go,2022.2.4,None,
X,space,,,,,0,12,12,11,,,,,,,,,,,,,,,,,,,,,92.07560058310628,92.07560058310628,92.67498337500729,space,1,0.49483829108066857,94.07463841699064,,,,,,,,,,,,,,,,,,,,,,,,,,,,SuryGlez,001,2022-10-27_11h03.32.631,Trial go no go,2022.2.4,None,
X,space,,,,,0,13,13,0,,,,,,,,,,,,,,,,,,,,,94.7917532499414,94.7917532499414,95.40840708301403,space,1,0.48199954093433917,96.79220800008625,,,,,,,,,,,,,,,,,,,,,,,,,,,,SuryGlez,001,2022-10-27_11h03.32.631,Trial go no go,2022.2.4,None,
X,space,,,,,0,14,14,1,,,,,,,,,,,,,,,,,,,,,97.4753450830467,97.4753450830467,98.07483875006437,space,1,0.46689566620625556,99.47502254205756,,,,,,,,,,,,,,,,,,,,,,,,,,,,SuryGlez,001,2022-10-27_11h03.32.631,Trial go no go,2022.2.4,None,
,,,,,,,,,,,,,,,,,,,,,,,,,,,,,,,,,,,,,,100.1918377080001,100.67494691698812,space,6.899893583031371,,,,,,,,,,,,,,,,,,,,,,,SuryGlez,001,2022-10-27_11h03.32.631,Trial go no go,2022.2.4,None,
,,W,none,,,,,,,0,0,0,9,,,,,,,,,,,,,,,,,,,,,,,,,,,,,107.12903762492351,107.12903762492351,107.43938741693273,None,1,,,,,,,,,,,,,,,,,,SuryGlez,001,2022-10-27_11h03.32.631,Trial go no go,2022.2.4,None,
,,X,space,,,,,,,0,1,1,0,,,,,,,,,,,,,,,,,,,,,,,,,,,,,108.141717457911,108.141717457911,108.45792070799507,space,1,0.5137459579855204,,,,,,,,,,,,,,,,,SuryGlez,001,2022-10-27_11h03.32.631,Trial go no go,2022.2.4,None,
,,X,space,,,,,,,0,2,2,13,,,,,,,,,,,,,,,,,,,,,,,,,,,,,109.14076908305287,109.14076908305287,109.45796583313495,space,1,0.5006278750952333,,,,,,,,,,,,,,,,,SuryGlez,001,2022-10-27_11h03.32.631,Trial go no go,2022.2.4,None,
,,X,space,,,,,,,0,3,3,28,,,,,,,,,,,,,,,,,,,,,,,,,,,,,110.14083329192363,110.14083329192363,110.4578447919339,space,1,0.4009104990400374,,,,,,,,,,,,,,,,,SuryGlez,001,2022-10-27_11h03.32.631,Trial go no go,2022.2.4,None,
,,H,none,,,,,,,0,4,4,24,,,,,,,,,,,,,,,,,,,,,,,,,,,,,111.14099495811388,111.14099495811388,111.45787058304995,None,1,,,,,,,,,,,,,,,,,,SuryGlez,001,2022-10-27_11h03.32.631,Trial go no go,2022.2.4,None,
,,X,space,,,,,,,0,5,5,27,,,,,,,,,,,,,,,,,,,,,,,,,,,,,112.14160600001924,112.14160600001924,112.45758058293723,space,1,0.3839605830144137,,,,,,,,,,,,,,,,,SuryGlez,001,2022-10-27_11h03.32.631,Trial go no go,2022.2.4,None,
,,X,space,,,,,,,0,6,6,2,,,,,,,,,,,,,,,,,,,,,,,,,,,,,113.14079729211517,113.14079729211517,113.45772562501952,space,1,0.5225605831947178,,,,,,,,,,,,,,,,,SuryGlez,001,2022-10-27_11h03.32.631,Trial go no go,2022.2.4,None,
,,M,none,,,,,,,0,7,7,39,,,,,,,,,,,,,,,,,,,,,,,,,,,,,114.14106829208322,114.14106829208322,114.45776091702282,None,1,,,,,,,,,,,,,,,,,,SuryGlez,001,2022-10-27_11h03.32.631,Trial go no go,2022.2.4,None,
,,X,space,,,,,,,0,8,8,22,,,,,,,,,,,,,,,,,,,,,,,,,,,,,115.12417879211716,115.12417879211716,115.44107429194264,space,1,0.34806837514042854,,,,,,,,,,,,,,,,,SuryGlez,001,2022-10-27_11h03.32.631,Trial go no go,2022.2.4,None,
,,X,space,,,,,,,0,9,9,21,,,,,,,,,,,,,,,,,,,,,,,,,,,,,116.12035408313386,116.12035408313386,116.42402262496762,space,1,0.41738779097795486,,,,,,,,,,,,,,,,,SuryGlez,001,2022-10-27_11h03.32.631,Trial go no go,2022.2.4,None,
,,X,space,,,,,,,0,10,10,6,,,,,,,,,,,,,,,,,,,,,,,,,,,,,117.1240181250032,117.1240181250032,117.42481549992226,space,1,0.4323137919418514,,,,,,,,,,,,,,,,,SuryGlez,001,2022-10-27_11h03.32.631,Trial go no go,2022.2.4,None,
,,X,space,,,,,,,0,11,11,36,,,,,,,,,,,,,,,,,,,,,,,,,,,,,118.12385191698559,118.12385191698559,118.42382470797747,space,1,0.4632235411554575,,,,,,,,,,,,,,,,,SuryGlez,001,2022-10-27_11h03.32.631,Trial go no go,2022.2.4,None,
,,X,space,,,,,,,0,12,12,30,,,,,,,,,,,,,,,,,,,,,,,,,,,,,119.1238333331421,119.1238333331421,119.42387424991466,space,1,0.3628328740596771,,,,,,,,,,,,,,,,,SuryGlez,001,2022-10-27_11h03.32.631,Trial go no go,2022.2.4,None,
,,X,space,,,,,,,0,13,13,11,,,,,,,,,,,,,,,,,,,,,,,,,,,,,120.12412654212676,120.12412654212676,120.42356887506321,space,1,0.3660930411424488,,,,,,,,,,,,,,,,,SuryGlez,001,2022-10-27_11h03.32.631,Trial go no go,2022.2.4,None,
,,T,none,,,,,,,0,14,14,29,,,,,,,,,,,,,,,,,,,,,,,,,,,,,121.12385341711342,121.12385341711342,121.42479462502524,None,1,,,,,,,,,,,,,,,,,,SuryGlez,001,2022-10-27_11h03.32.631,Trial go no go,2022.2.4,None,
,,X,space,,,,,,,0,15,15,33,,,,,,,,,,,,,,,,,,,,,,,,,,,,,122.12394224992022,122.12394224992022,122.42381670791656,space,1,0.4260108331218362,,,,,,,,,,,,,,,,,SuryGlez,001,2022-10-27_11h03.32.631,Trial go no go,2022.2.4,None,
,,X,space,,,,,,,0,16,16,31,,,,,,,,,,,,,,,,,,,,,,,,,,,,,123.12384883291088,123.12384883291088,123.4237898751162,space,1,0.382417666958645,,,,,,,,,,,,,,,,,SuryGlez,001,2022-10-27_11h03.32.631,Trial go no go,2022.2.4,None,
,,K,none,,,,,,,0,17,17,19,,,,,,,,,,,,,,,,,,,,,,,,,,,,,124.12400620803237,124.12400620803237,124.42375175002962,None,1,,,,,,,,,,,,,,,,,,SuryGlez,001,2022-10-27_11h03.32.631,Trial go no go,2022.2.4,None,
,,X,space,,,,,,,0,18,18,45,,,,,,,,,,,,,,,,,,,,,,,,,,,,,125.12384575000033,125.12384575000033,125.42306474992074,space,1,0.33164250012487173,,,,,,,,,,,,,,,,,SuryGlez,001,2022-10-27_11h03.32.631,Trial go no go,2022.2.4,None,
,,X,space,,,,,,,0,19,19,5,,,,,,,,,,,,,,,,,,,,,,,,,,,,,126.1237532501109,126.1237532501109,126.42273204191588,space,1,0.45220454107038677,,,,,,,,,,,,,,,,,SuryGlez,001,2022-10-27_11h03.32.631,Trial go no go,2022.2.4,None,
,,X,space,,,,,,,0,20,20,47,,,,,,,,,,,,,,,,,,,,,,,,,,,,,127.12389404210262,127.12389404210262,127.42278862511739,space,1,0.40234808321110904,,,,,,,,,,,,,,,,,SuryGlez,001,2022-10-27_11h03.32.631,Trial go no go,2022.2.4,None,
,,X,space,,,,,,,0,21,21,7,,,,,,,,,,,,,,,,,,,,,,,,,,,,,128.12342249997891,128.12342249997891,128.42311304202303,space,1,0.4333839160390198,129.12337566702627,,,,,,,,,,,,,,,,SuryGlez,001,2022-10-27_11h03.32.631,Trial go no go,2022.2.4,None,
,,X,space,,,,,,,0,22,22,35,,,,,,,,,,,,,,,,,,,,,,,,,,,,,129.12337566702627,129.12337566702627,129.42307241703384,space,1,0.3732799580320716,130.12342304200865,,,,,,,,,,,,,,,,SuryGlez,001,2022-10-27_11h03.32.631,Trial go no go,2022.2.4,None,
,,Y,none,,,,,,,0,23,23,14,,,,,,,,,,,,,,,,,,,,,,,,,,,,,130.12342304200865,130.12342304200865,130.4234097080771,space,0,0.34796141600236297,131.123336333083,,,,,,,,,,,,,,,,SuryGlez,001,2022-10-27_11h03.32.631,Trial go no go,2022.2.4,None,
,,X,space,,,,,,,0,24,24,1,,,,,,,,,,,,,,,,,,,,,,,,,,,,,131.123336333083,131.123336333083,131.42286095791496,space,1,0.48430587514303625,,,,,,,,,,,,,,,,,SuryGlez,001,2022-10-27_11h03.32.631,Trial go no go,2022.2.4,None,
,,X,space,,,,,,,0,25,25,26,,,,,,,,,,,,,,,,,,,,,,,,,,,,,132.12346445792355,132.12346445792355,132.42295325011946,space,1,0.4359364581760019,133.12326754210517,,,,,,,,,,,,,,,,SuryGlez,001,2022-10-27_11h03.32.631,Trial go no go,2022.2.4,None,
,,X,space,,,,,,,0,26,26,18,,,,,,,,,,,,,,,,,,,,,,,,,,,,,133.12326754210517,133.12326754210517,133.42339316708967,space,1,0.47306491690687835,134.1233728749212,,,,,,,,,,,,,,,,SuryGlez,001,2022-10-27_11h03.32.631,Trial go no go,2022.2.4,None,
,,X,space,,,,,,,0,27,27,37,,,,,,,,,,,,,,,,,,,,,,,,,,,,,134.1233728749212,134.1233728749212,134.42338416702114,space,1,0.5164288328960538,135.1238014169503,,,,,,,,,,,,,,,,SuryGlez,001,2022-10-27_11h03.32.631,Trial go no go,2022.2.4,None,
,,X,space,,,,,,,0,28,28,10,,,,,,,,,,,,,,,,,,,,,,,,,,,,,135.1238014169503,135.1238014169503,135.42297258297913,space,1,0.4467619170900434,136.12328287493438,,,,,,,,,,,,,,,,SuryGlez,001,2022-10-27_11h03.32.631,Trial go no go,2022.2.4,None,
,,X,space,,,,,,,0,29,29,8,,,,,,,,,,,,,,,,,,,,,,,,,,,,,136.12328287493438,136.12328287493438,136.423408749979,space,1,0.7482632908504456,137.1232916249428,,,,,,,,,,,,,,,,SuryGlez,001,2022-10-27_11h03.32.631,Trial go no go,2022.2.4,None,
,,X,space,,,,,,,0,30,30,43,,,,,,,,,,,,,,,,,,,,,,,,,,,,,137.1232916249428,137.1232916249428,137.4233620830346,space,1,0.5112797499168664,138.12335141701624,,,,,,,,,,,,,,,,SuryGlez,001,2022-10-27_11h03.32.631,Trial go no go,2022.2.4,None,
,,X,space,,,,,,,0,31,31,41,,,,,,,,,,,,,,,,,,,,,,,,,,,,,138.12335141701624,138.12335141701624,138.42374312505126,space,1,0.40252037486061454,139.1235627080314,,,,,,,,,,,,,,,,SuryGlez,001,2022-10-27_11h03.32.631,Trial go no go,2022.2.4,None,
,,X,space,,,,,,,0,32,32,23,,,,,,,,,,,,,,,,,,,,,,,,,,,,,139.1235627080314,139.1235627080314,139.42342066694982,space,1,0.4259442500770092,,,,,,,,,,,,,,,,,SuryGlez,001,2022-10-27_11h03.32.631,Trial go no go,2022.2.4,None,
,,X,space,,,,,,,0,33,33,40,,,,,,,,,,,,,,,,,,,,,,,,,,,,,140.12379979202524,140.12379979202524,140.42338950000703,space,1,0.40621904097497463,141.12341954209842,,,,,,,,,,,,,,,,SuryGlez,001,2022-10-27_11h03.32.631,Trial go no go,2022.2.4,None,
,,X,space,,,,,,,0,34,34,46,,,,,,,,,,,,,,,,,,,,,,,,,,,,,141.12341954209842,141.12341954209842,141.42329020798206,space,1,0.4332788740284741,142.12328408309259,,,,,,,,,,,,,,,,SuryGlez,001,2022-10-27_11h03.32.631,Trial go no go,2022.2.4,None,
,,V,none,,,,,,,0,35,35,4,,,,,,,,,,,,,,,,,,,,,,,,,,,,,142.12328408309259,142.12328408309259,142.42347316700034,None,1,,143.1227360421326,,,,,,,,,,,,,,,,SuryGlez,001,2022-10-27_11h03.32.631,Trial go no go,2022.2.4,None,
,,X,space,,,,,,,0,36,36,20,,,,,,,,,,,,,,,,,,,,,,,,,,,,,143.1227360421326,143.1227360421326,143.42351824999787,space,1,0.37334950012154877,144.12323141703382,,,,,,,,,,,,,,,,SuryGlez,001,2022-10-27_11h03.32.631,Trial go no go,2022.2.4,None,
,,X,space,,,,,,,0,37,37,38,,,,,,,,,,,,,,,,,,,,,,,,,,,,,144.12323141703382,144.12323141703382,144.42349837510847,space,1,0.3745933740865439,145.12298462493345,,,,,,,,,,,,,,,,SuryGlez,001,2022-10-27_11h03.32.631,Trial go no go,2022.2.4,None,
,,N,none,,,,,,,0,38,38,34,,,,,,,,,,,,,,,,,,,,,,,,,,,,,145.12298462493345,145.12298462493345,145.4233255421277,None,1,,146.12345508299768,,,,,,,,,,,,,,,,SuryGlez,001,2022-10-27_11h03.32.631,Trial go no go,2022.2.4,None,
,,X,space,,,,,,,0,39,39,48,,,,,,,,,,,,,,,,,,,,,,,,,,,,,146.12345508299768,146.12345508299768,146.42358050006442,space,1,0.4676278750412166,147.1230836249888,,,,,,,,,,,,,,,,SuryGlez,001,2022-10-27_11h03.32.631,Trial go no go,2022.2.4,None,
,,X,space,,,,,,,0,40,40,15,,,,,,,,,,,,,,,,,,,,,,,,,,,,,147.1230836249888,147.1230836249888,147.42279337509535,space,1,0.4715388750191778,148.12354475003667,,,,,,,,,,,,,,,,SuryGlez,001,2022-10-27_11h03.32.631,Trial go no go,2022.2.4,None,
,,X,space,,,,,,,0,41,41,25,,,,,,,,,,,,,,,,,,,,,,,,,,,,,148.12354475003667,148.12354475003667,148.42354920809157,space,1,0.4507879999000579,149.12317637493834,,,,,,,,,,,,,,,,SuryGlez,001,2022-10-27_11h03.32.631,Trial go no go,2022.2.4,None,
,,E,none,,,,,,,0,42,42,49,,,,,,,,,,,,,,,,,,,,,,,,,,,,,149.12317637493834,149.12317637493834,149.4231147079263,None,1,,150.12382508302107,,,,,,,,,,,,,,,,SuryGlez,001,2022-10-27_11h03.32.631,Trial go no go,2022.2.4,None,
,,X,space,,,,,,,0,43,43,3,,,,,,,,,,,,,,,,,,,,,,,,,,,,,150.12382508302107,150.12382508302107,150.42363041709177,space,1,0.28064033295959234,151.12306866701692,,,,,,,,,,,,,,,,SuryGlez,001,2022-10-27_11h03.32.631,Trial go no go,2022.2.4,None,
,,F,none,,,,,,,0,44,44,44,,,,,,,,,,,,,,,,,,,,,,,,,,,,,151.12306866701692,151.12306866701692,151.42360129207373,None,1,,,,,,,,,,,,,,,,,,SuryGlez,001,2022-10-27_11h03.32.631,Trial go no go,2022.2.4,None,
,,X,space,,,,,,,0,45,45,32,,,,,,,,,,,,,,,,,,,,,,,,,,,,,152.12393983313814,152.12393983313814,152.4236769999843,space,1,0.30120116705074906,,,,,,,,,,,,,,,,,SuryGlez,001,2022-10-27_11h03.32.631,Trial go no go,2022.2.4,None,
,,X,space,,,,,,,0,46,46,16,,,,,,,,,,,,,,,,,,,,,,,,,,,,,153.12344454205595,153.12344454205595,153.42322970810346,space,1,0.38966570794582367,154.1240741671063,,,,,,,,,,,,,,,,SuryGlez,001,2022-10-27_11h03.32.631,Trial go no go,2022.2.4,None,
,,X,space,,,,,,,0,47,47,42,,,,,,,,,,,,,,,,,,,,,,,,,,,,,154.1240741671063,154.1240741671063,154.42327554197982,space,1,0.39003045787103474,155.12363566691056,,,,,,,,,,,,,,,,SuryGlez,001,2022-10-27_11h03.32.631,Trial go no go,2022.2.4,None,
,,X,space,,,,,,,0,48,48,12,,,,,,,,,,,,,,,,,,,,,,,,,,,,,155.12363566691056,155.12363566691056,155.42357687512413,space,1,0.32076904200948775,156.12334787496366,,,,,,,,,,,,,,,,SuryGlez,001,2022-10-27_11h03.32.631,Trial go no go,2022.2.4,None,
,,X,space,,,,,,,0,49,49,17,,,,,,,,,,,,,,,,,,,,,,,,,,,,,156.12334787496366,156.12334787496366,156.4232477080077,space,1,0.3407424578908831,157.12356304191053,,,,,,,,,,,,,,,,SuryGlez,001,2022-10-27_11h03.32.631,Trial go no go,2022.2.4,None,
,,,,,,,,,,,,,,,,,,,,,,,,,,,,,,,,,,,,,,,,,,,,,,,,,157.12356304191053,157.60688608302735,space,9.471324498998001,,,,,,,,,,,,SuryGlez,001,2022-10-27_11h03.32.631,Trial go no go,2022.2.4,None,
,,,,X,none,,,,,,,,,0,0,0,9,,,,,,,,,,,,,,,,,,,,,,,,,,,,,,,,,,,,166.6225496251136,166.6225496251136,166.9235837920569,space,0,0.9496079578530043,,,,,,SuryGlez,001,2022-10-27_11h03.32.631,Trial go no go,2022.2.4,None,
,,,,N,space,,,,,,,,,0,1,1,16,,,,,,,,,,,,,,,,,,,,,,,,,,,,,,,,,,,,167.62283558305353,167.62283558305353,167.92348066694103,None,0,,168.62358512496576,,,,,SuryGlez,001,2022-10-27_11h03.32.631,Trial go no go,2022.2.4,None,
,,,,K,space,,,,,,,,,0,2,2,30,,,,,,,,,,,,,,,,,,,,,,,,,,,,,,,,,,,,168.62358512496576,168.62358512496576,168.92368912510574,space,1,0.4734286670573056,169.62328399997205,,,,,SuryGlez,001,2022-10-27_11h03.32.631,Trial go no go,2022.2.4,None,
,,,,X,none,,,,,,,,,0,3,3,44,,,,,,,,,,,,,,,,,,,,,,,,,,,,,,,,,,,,169.62328399997205,169.62328399997205,169.92348458291963,space,0,0.33149595791473985,170.62364925001748,,,,,SuryGlez,001,2022-10-27_11h03.32.631,Trial go no go,2022.2.4,None,
,,,,Z,space,,,,,,,,,0,4,4,32,,,,,,,,,,,,,,,,,,,,,,,,,,,,,,,,,,,,170.62364925001748,170.62364925001748,170.9233683331404,space,1,0.520609833067283,171.6235787079204,,,,,SuryGlez,001,2022-10-27_11h03.32.631,Trial go no go,2022.2.4,None,
,,,,K,space,,,,,,,,,0,5,5,11,,,,,,,,,,,,,,,,,,,,,,,,,,,,,,,,,,,,171.6235787079204,171.6235787079204,171.92352979211137,None,0,,172.62378920800984,,,,,SuryGlez,001,2022-10-27_11h03.32.631,Trial go no go,2022.2.4,None,
,,,,A,space,,,,,,,,,0,6,6,26,,,,,,,,,,,,,,,,,,,,,,,,,,,,,,,,,,,,172.62378920800984,172.62378920800984,172.9236876249779,space,1,0.31861304212361574,173.6241199169308,,,,,SuryGlez,001,2022-10-27_11h03.32.631,Trial go no go,2022.2.4,None,
,,,,F,space,,,,,,,,,0,7,7,46,,,,,,,,,,,,,,,,,,,,,,,,,,,,,,,,,,,,173.6241199169308,173.6241199169308,173.9236965419259,space,1,0.38014508318156004,174.62372312508523,,,,,SuryGlez,001,2022-10-27_11h03.32.631,Trial go no go,2022.2.4,None,
,,,,T,space,,,,,,,,,0,8,8,41,,,,,,,,,,,,,,,,,,,,,,,,,,,,,,,,,,,,174.62372312508523,174.62372312508523,174.92354166693985,space,1,0.3576040412299335,175.6240384581033,,,,,SuryGlez,001,2022-10-27_11h03.32.631,Trial go no go,2022.2.4,None,
,,,,X,none,,,,,,,,,0,9,9,29,,,,,,,,,,,,,,,,,,,,,,,,,,,,,,,,,,,,175.6240384581033,175.6240384581033,175.9235025420785,space,0,0.296670958166942,176.62335041700862,,,,,SuryGlez,001,2022-10-27_11h03.32.631,Trial go no go,2022.2.4,None,
,,,,Y,space,,,,,,,,,0,10,10,23,,,,,,,,,,,,,,,,,,,,,,,,,,,,,,,,,,,,176.62335041700862,176.62335041700862,176.92367658298463,space,1,0.45082091609947383,177.62348500010557,,,,,SuryGlez,001,2022-10-27_11h03.32.631,Trial go no go,2022.2.4,None,
,,,,E,space,,,,,,,,,0,11,11,1,,,,,,,,,,,,,,,,,,,,,,,,,,,,,,,,,,,,177.62348500010557,177.62348500010557,177.9236193750985,space,1,0.5138267078436911,,,,,,SuryGlez,001,2022-10-27_11h03.32.631,Trial go no go,2022.2.4,None,
,,,,X,none,,,,,,,,,0,12,12,4,,,,,,,,,,,,,,,,,,,,,,,,,,,,,,,,,,,,178.64028366701677,178.64028366701677,178.9393727921415,None,1,,,,,,,SuryGlez,001,2022-10-27_11h03.32.631,Trial go no go,2022.2.4,None,
,,,,F,space,,,,,,,,,0,13,13,27,,,,,,,,,,,,,,,,,,,,,,,,,,,,,,,,,,,,179.63947966694832,179.63947966694832,179.93964258302003,space,1,0.28165520797483623,,,,,,SuryGlez,001,2022-10-27_11h03.32.631,Trial go no go,2022.2.4,None,
,,,,H,space,,,,,,,,,0,14,14,28,,,,,,,,,,,,,,,,,,,,,,,,,,,,,,,,,,,,180.63925866712816,180.63925866712816,180.93929512496106,space,1,0.4144087911117822,,,,,,SuryGlez,001,2022-10-27_11h03.32.631,Trial go no go,2022.2.4,None,
,,,,L,space,,,,,,,,,0,15,15,12,,,,,,,,,,,,,,,,,,,,,,,,,,,,,,,,,,,,181.64007620792836,181.64007620792836,181.9394563329406,space,1,0.3998132909182459,,,,,,SuryGlez,001,2022-10-27_11h03.32.631,Trial go no go,2022.2.4,None,
,,,,Z,space,,,,,,,,,0,16,16,13,,,,,,,,,,,,,,,,,,,,,,,,,,,,,,,,,,,,182.63917566696182,182.63917566696182,182.9394519580528,space,1,0.4662724998779595,,,,,,SuryGlez,001,2022-10-27_11h03.32.631,Trial go no go,2022.2.4,None,
,,,,A,space,,,,,,,,,0,17,17,7,,,,,,,,,,,,,,,,,,,,,,,,,,,,,,,,,,,,183.63946712506004,183.63946712506004,183.9394033330027,space,1,0.47456641704775393,,,,,,SuryGlez,001,2022-10-27_11h03.32.631,Trial go no go,2022.2.4,None,
,,,,V,space,,,,,,,,,0,18,18,33,,,,,,,,,,,,,,,,,,,,,,,,,,,,,,,,,,,,184.62536337506026,184.62536337506026,184.93933687498793,space,1,0.4031342922244221,,,,,,SuryGlez,001,2022-10-27_11h03.32.631,Trial go no go,2022.2.4,None,
,,,,A,space,,,,,,,,,0,19,19,45,,,,,,,,,,,,,,,,,,,,,,,,,,,,,,,,,,,,185.64012475009076,185.64012475009076,185.93721250002272,space,1,0.3468311671167612,,,,,,SuryGlez,001,2022-10-27_11h03.32.631,Trial go no go,2022.2.4,None,
,,,,X,none,,,,,,,,,0,20,20,34,,,,,,,,,,,,,,,,,,,,,,,,,,,,,,,,,,,,186.6251888750121,186.6251888750121,186.93992537492886,space,0,0.3621587920933962,,,,,,SuryGlez,001,2022-10-27_11h03.32.631,Trial go no go,2022.2.4,None,
,,,,W,space,,,,,,,,,0,21,21,18,,,,,,,,,,,,,,,,,,,,,,,,,,,,,,,,,,,,187.6395480420906,187.6395480420906,187.9563343329355,space,1,0.4411377490032464,,,,,,SuryGlez,001,2022-10-27_11h03.32.631,Trial go no go,2022.2.4,None,
,,,,K,space,,,,,,,,,0,22,22,48,,,,,,,,,,,,,,,,,,,,,,,,,,,,,,,,,,,,188.63940462493338,188.63940462493338,188.93945325003006,space,1,0.49901383300311863,,,,,,SuryGlez,001,2022-10-27_11h03.32.631,Trial go no go,2022.2.4,None,
,,,,M,space,,,,,,,,,0,23,23,17,,,,,,,,,,,,,,,,,,,,,,,,,,,,,,,,,,,,189.62491500005126,189.62491500005126,189.93989500007592,space,1,0.3572960002347827,,,,,,SuryGlez,001,2022-10-27_11h03.32.631,Trial go no go,2022.2.4,None,
,,,,F,space,,,,,,,,,0,24,24,8,,,,,,,,,,,,,,,,,,,,,,,,,,,,,,,,,,,,190.63936720811762,190.63936720811762,190.95630604191683,space,1,0.37599916593171656,,,,,,SuryGlez,001,2022-10-27_11h03.32.631,Trial go no go,2022.2.4,None,
,,,,Y,space,,,,,,,,,0,25,25,5,,,,,,,,,,,,,,,,,,,,,,,,,,,,,,,,,,,,191.63981999992393,191.63981999992393,191.93728579208255,space,1,0.4872077910695225,,,,,,SuryGlez,001,2022-10-27_11h03.32.631,Trial go no go,2022.2.4,None,
,,,,R,space,,,,,,,,,0,26,26,21,,,,,,,,,,,,,,,,,,,,,,,,,,,,,,,,,,,,192.63390204194002,192.63390204194002,192.9398845830001,space,1,0.3705366658978164,,,,,,SuryGlez,001,2022-10-27_11h03.32.631,Trial go no go,2022.2.4,None,
,,,,N,space,,,,,,,,,0,27,27,35,,,,,,,,,,,,,,,,,,,,,,,,,,,,,,,,,,,,193.633872958133,193.633872958133,193.93992362497374,space,1,0.3951182491146028,,,,,,SuryGlez,001,2022-10-27_11h03.32.631,Trial go no go,2022.2.4,None,
,,,,E,space,,,,,,,,,0,28,28,38,,,,,,,,,,,,,,,,,,,,,,,,,,,,,,,,,,,,194.62493887497112,194.62493887497112,194.93947816709988,space,1,0.41379087418317795,,,,,,SuryGlez,001,2022-10-27_11h03.32.631,Trial go no go,2022.2.4,None,
,,,,X,none,,,,,,,,,0,29,29,19,,,,,,,,,,,,,,,,,,,,,,,,,,,,,,,,,,,,195.62390191713348,195.62390191713348,195.93935141712427,space,0,0.4445614169817418,196.62060504197143,,,,,SuryGlez,001,2022-10-27_11h03.32.631,Trial go no go,2022.2.4,None,
,,,,T,space,,,,,,,,,0,30,30,22,,,,,,,,,,,,,,,,,,,,,,,,,,,,,,,,,,,,196.62060504197143,196.62060504197143,196.9172025830485,space,1,0.443770790938288,197.6207151671406,,,,,SuryGlez,001,2022-10-27_11h03.32.631,Trial go no go,2022.2.4,None,
,,,,X,none,,,,,,,,,0,31,31,14,,,,,,,,,,,,,,,,,,,,,,,,,,,,,,,,,,,,197.6207151671406,197.6207151671406,197.9208164580632,None,1,,,,,,,SuryGlez,001,2022-10-27_11h03.32.631,Trial go no go,2022.2.4,None,
,,,,E,space,,,,,,,,,0,32,32,20,,,,,,,,,,,,,,,,,,,,,,,,,,,,,,,,,,,,198.61656220792793,198.61656220792793,198.92001754208468,space,1,0.3540833748411387,199.6238185421098,,,,,SuryGlez,001,2022-10-27_11h03.32.631,Trial go no go,2022.2.4,None,
,,,,I,space,,,,,,,,,0,33,33,43,,,,,,,,,,,,,,,,,,,,,,,,,,,,,,,,,,,,199.6238185421098,199.6238185421098,199.92066812491976,space,1,0.33423662395216525,,,,,,SuryGlez,001,2022-10-27_11h03.32.631,Trial go no go,2022.2.4,None,
,,,,L,space,,,,,,,,,0,34,34,31,,,,,,,,,,,,,,,,,,,,,,,,,,,,,,,,,,,,200.64037187513895,200.64037187513895,200.9337747921236,space,1,0.3764110829215497,,,,,,SuryGlez,001,2022-10-27_11h03.32.631,Trial go no go,2022.2.4,None,
,,,,W,space,,,,,,,,,0,35,35,37,,,,,,,,,,,,,,,,,,,,,,,,,,,,,,,,,,,,201.63994087511674,201.63994087511674,201.93355150008574,space,1,0.3976246251258999,,,,,,SuryGlez,001,2022-10-27_11h03.32.631,Trial go no go,2022.2.4,None,
,,,,H,space,,,,,,,,,0,36,36,10,,,,,,,,,,,,,,,,,,,,,,,,,,,,,,,,,,,,202.6335396671202,202.6335396671202,202.93373920791782,space,1,0.4777158750221133,,,,,,SuryGlez,001,2022-10-27_11h03.32.631,Trial go no go,2022.2.4,None,
,,,,T,space,,,,,,,,,0,37,37,3,,,,,,,,,,,,,,,,,,,,,,,,,,,,,,,,,,,,203.6248135000933,203.6248135000933,203.93366641714238,space,1,0.3844238331075758,,,,,,SuryGlez,001,2022-10-27_11h03.32.631,Trial go no go,2022.2.4,None,
,,,,H,space,,,,,,,,,0,38,38,47,,,,,,,,,,,,,,,,,,,,,,,,,,,,,,,,,,,,204.63339254213497,204.63339254213497,204.9395145419985,space,1,0.38456887495703995,,,,,,SuryGlez,001,2022-10-27_11h03.32.631,Trial go no go,2022.2.4,None,
,,,,R,space,,,,,,,,,0,39,39,2,,,,,,,,,,,,,,,,,,,,,,,,,,,,,,,,,,,,205.62508258293383,205.62508258293383,205.94033937505446,space,1,0.4298193329013884,,,,,,SuryGlez,001,2022-10-27_11h03.32.631,Trial go no go,2022.2.4,None,
,,,,I,space,,,,,,,,,0,40,40,25,,,,,,,,,,,,,,,,,,,,,,,,,,,,,,,,,,,,206.62444799998775,206.62444799998775,206.9334029580932,space,1,0.46245400002226233,,,,,,SuryGlez,001,2022-10-27_11h03.32.631,Trial go no go,2022.2.4,None,
,,,,X,none,,,,,,,,,0,41,41,24,,,,,,,,,,,,,,,,,,,,,,,,,,,,,,,,,,,,207.63331562513486,207.63331562513486,207.93334400001913,space,0,0.3778826661873609,,,,,,SuryGlez,001,2022-10-27_11h03.32.631,Trial go no go,2022.2.4,None,
,,,,R,space,,,,,,,,,0,42,42,40,,,,,,,,,,,,,,,,,,,,,,,,,,,,,,,,,,,,208.62532412493601,208.62532412493601,208.93338258308358,space,1,0.32829887396655977,,,,,,SuryGlez,001,2022-10-27_11h03.32.631,Trial go no go,2022.2.4,None,
,,,,X,none,,,,,,,,,0,43,43,39,,,,,,,,,,,,,,,,,,,,,,,,,,,,,,,,,,,,209.63340341695584,209.63340341695584,209.93333854200318,None,1,,,,,,,SuryGlez,001,2022-10-27_11h03.32.631,Trial go no go,2022.2.4,None,
,,,,Y,space,,,,,,,,,0,44,44,42,,,,,,,,,,,,,,,,,,,,,,,,,,,,,,,,,,,,210.63691258314066,210.63691258314066,210.95643104193732,space,1,0.325377875007689,,,,,,SuryGlez,001,2022-10-27_11h03.32.631,Trial go no go,2022.2.4,None,
,,,,M,space,,,,,,,,,0,45,45,36,,,,,,,,,,,,,,,,,,,,,,,,,,,,,,,,,,,,211.63329741708003,211.63329741708003,211.9331990419887,space,1,0.3412941249553114,,,,,,SuryGlez,001,2022-10-27_11h03.32.631,Trial go no go,2022.2.4,None,
,,,,X,none,,,,,,,,,0,46,46,49,,,,,,,,,,,,,,,,,,,,,,,,,,,,,,,,,,,,212.62451591691934,212.62451591691934,212.9332039579749,None,1,,,,,,,SuryGlez,001,2022-10-27_11h03.32.631,Trial go no go,2022.2.4,None,
,,,,W,space,,,,,,,,,0,47,47,0,,,,,,,,,,,,,,,,,,,,,,,,,,,,,,,,,,,,213.63311087503098,213.63311087503098,213.9331122499425,space,1,0.3780252079013735,,,,,,SuryGlez,001,2022-10-27_11h03.32.631,Trial go no go,2022.2.4,None,
,,,,V,space,,,,,,,,,0,48,48,15,,,,,,,,,,,,,,,,,,,,,,,,,,,,,,,,,,,,214.6330076251179,214.6330076251179,214.9395329169929,space,1,0.35164566594175994,,,,,,SuryGlez,001,2022-10-27_11h03.32.631,Trial go no go,2022.2.4,None,
,,,,I,space,,,,,,,,,0,49,49,6,,,,,,,,,,,,,,,,,,,,,,,,,,,,,,,,,,,,215.63959274999797,215.63959274999797,215.9330041250214,space,1,0.41461966605857015,,,,,,SuryGlez,001,2022-10-27_11h03.32.631,Trial go no go,2022.2.4,None,
,,,,,,,,,,,,,,,,,,,,,,,,,,,,,,,,,,,,,,,,,,,,,,,,,,,,,,,,,,,,216.62362762494013,217.12017366709188,space,2.778999082976952,SuryGlez,001,2022-10-27_11h03.32.631,Trial go no go,2022.2.4,None,
