S1,S2,S3,S4,S5,S6,S7,S8,S9,S10,S11,S12,S13,S14,S15,S16,CorrAns3,CorrAns4,CorrAns5,CorrAns6,CorrAns7,CorrAns8,CorrAns9,CorrAns10,CorrAns11,CorrAns12,CorrAns13,CorrAns14,CorrAns15,CorrAns16,trials_2.thisRepN,trials_2.thisTrialN,trials_2.thisN,trials_2.thisIndex,trials.thisRepN,trials.thisTrialN,trials.thisN,trials.thisIndex,trials_3.thisRepN,trials_3.thisTrialN,trials_3.thisN,trials_3.thisIndex,Seq4_tr.started,recall_resp,key_resp_4.keys,key_resp_4.corr,key_resp_4.rt,text_go.started,key_resp_5.started,DS,key_resp2_2.keys,key_resp2_2.corr,key_resp2_2.rt,score,Forward WM score,B_DS,key_resp2_2B.keys,key_resp2_2B.corr,key_resp2_2B.rt,Backward WM score,participant,session,date,expName,psychopyVersion,frameRate,
8,1,6,0,0,0,0,0,0,0,0,0,0,0,0,0,"['8', '1', '6']",None,None,None,None,None,None,None,None,None,None,None,None,None,,,,,0,0,0,0,,,,,57.45351041599861,816,"['1', '2', '3']",0,"[1.1007363340031588, 1.4202765010013536, 1.7370504179998534, 2.2400941260020772]",60.220471499997075,60.220471499997075,3,"['8', '1', '6']",0,"[2.9315802500022983, 3.1590891250016284, 3.3325376249995315, 5.231369666998944]",1,,,,,,,Dulce2,001,2022-11-05_14h06.44.952,DS_Adapt1L,2022.2.4,60.12612946794062,
4,7,2,9,0,0,0,0,0,0,0,0,0,0,0,0,"['4', '7', '2']","['4', '7', '2', '9']",None,None,None,None,None,None,None,None,None,None,None,None,,,,,0,1,1,1,,,,,,4729,,,,,,4,"['4', '7', '2', '9']",0,"[0.9762979590013856, 1.5310004170023603, 1.9993979170030798, 2.3200042090029456, 3.004482251002628]",1,,,,,,,Dulce2,001,2022-11-05_14h06.44.952,DS_Adapt1L,2022.2.4,60.12612946794062,
6,9,1,7,2,0,0,0,0,0,0,0,0,0,0,0,"['6', '9', '1']","['6', '9', '1', '7']","['6', '9', '1', '7', '2']",None,None,None,None,None,None,None,None,None,None,None,,,,,0,2,2,2,,,,,,96172,,,,,,5,"['9', '6', '1', '7', '2']",0,"[1.7570996670001477, 4.165273251001054, 5.076406833999499, 5.229453709001973, 5.381612208999286, 7.401938209000946]",0,,,,,,,Dulce2,001,2022-11-05_14h06.44.952,DS_Adapt1L,2022.2.4,60.12612946794062,
7,9,4,1,8,2,0,0,0,0,0,0,0,0,0,0,"['7', '9', '4']","['7', '9', '4', '1']","['7', '9', '4', '1', '8']","['7', '9', '4', '1', '8', '2']",None,None,None,None,None,None,None,None,None,None,,,,,0,3,3,3,,,,,,79418,,,,,,5,"['7', '9', '4', '1', '8']",0,"[1.5872508340034983, 1.8929039590038883, 2.6400114170028246, 3.0393608340018545, 3.2525151260015264, 4.017945084004168]",1,,,,,,,Dulce2,001,2022-11-05_14h06.44.952,DS_Adapt1L,2022.2.4,60.12612946794062,
5,2,8,4,7,3,9,0,0,0,0,0,0,0,0,0,"['5', '2', '8']","['5', '2', '8', '4']","['5', '2', '8', '4', '7']","['5', '2', '8', '4', '7', '3']","['5', '2', '8', '4', '7', '3', '9']",None,None,None,None,None,None,None,None,None,,,,,0,4,4,4,,,,,,528473,,,,,,6,"['5', '2', '8', '4', '7', '3']",0,"[1.3122784170009254, 1.6936126260006859, 2.0318950840010075, 14.86854854199919, 40.305003459001455, 40.84965662600007, 43.39960641699872]",1,,,,,,,Dulce2,001,2022-11-05_14h06.44.952,DS_Adapt1L,2022.2.4,60.12612946794062,
2,5,1,7,4,9,3,8,0,0,0,0,0,0,0,0,"['2', '5', '1']","['2', '5', '1', '7']","['2', '5', '1', '7', '4']","['2', '5', '1', '7', '4', '9']","['2', '5', '1', '7', '4', '9', '3']","['2', '5', '1', '7', '4', '9', '3', '8']",None,None,None,None,None,None,None,None,,,,,0,5,5,5,,,,,,2519493,,,,,,7,"['2', '5', '1', '9', '4', '9', '3']",0,"[2.9234953339982894, 3.048830708998139, 3.224764292001055, 3.9651496250007767, 4.840024791999895, 5.3726289170008386, 5.827983250001125, 9.862708791999466]",0,,,,,,,Dulce2,001,2022-11-05_14h06.44.952,DS_Adapt1L,2022.2.4,60.12612946794062,
6,2,5,8,3,9,4,1,7,0,0,0,0,0,0,0,"['6', '2', '5']","['6', '2', '5', '8']","['6', '2', '5', '8', '3']","['6', '2', '5', '8', '3', '9']","['6', '2', '5', '8', '3', '9', '4']","['6', '2', '5', '8', '3', '9', '4', '1']","['6', '2', '5', '8', '3', '9', '4', '1', '7']",None,None,None,None,None,None,None,,,,,0,6,6,6,,,,,,6258943,,,,,,7,"['6', '2', '5', '8', '9', '4', '3']",0,"[3.7509609590015316, 4.532068167001853, 5.281081251003343, 9.14873637600249, 9.794330584001727, 10.46823095900254, 11.187958792001155, 23.19696100100191]",0,,,,,,,Dulce2,001,2022-11-05_14h06.44.952,DS_Adapt1L,2022.2.4,60.12612946794062,
1,7,3,8,4,9,5,2,6,9,0,0,0,0,0,0,"['1', '7', '3']","['1', '7', '3', '8']","['1', '7', '3', '8', '4']","['1', '7', '3', '8', '4', '9']","['1', '7', '3', '8', '4', '9', '5']","['1', '7', '3', '8', '4', '9', '5', '2']","['1', '7', '3', '8', '4', '9', '5', '2', '6']","['1', '7', '3', '8', '4', '9', '5', '2', '6', '9']",None,None,None,None,None,None,,,,,0,7,7,7,,,,,,173849,,,,,,6,"['1', '7', '3', '8', '4', '9']",0,"[1.9425600840040715, 2.3725097510032356, 3.0030983760007075, 6.484365834003256, 6.7291634590037575, 6.890253042001859, 7.926271251002618]",1,,,,,,,Dulce2,001,2022-11-05_14h06.44.952,DS_Adapt1L,2022.2.4,60.12612946794062,
4,9,6,2,5,8,1,7,3,7,4,0,0,0,0,0,"['4', '9', '6']","['4', '9', '6', '2']","['4', '9', '6', '2', '5']","['4', '9', '6', '2', '5', '8']","['4', '9', '6', '2', '5', '8', '1']","['4', '9', '6', '2', '5', '8', '1', '7']","['4', '9', '6', '2', '5', '8', '1', '7', '3']","['4', '9', '6', '2', '5', '8', '1', '7', '3', '7']","['4', '9', '6', '2', '5', '8', '1', '7', '3', '7', '4']",None,None,None,None,None,,,,,0,8,8,8,,,,,,4955489,,,,,,7,"['4', '9', '5', '5', '4', '8', '9']",0,"[1.994763751001301, 2.884518709000986, 3.972912291999819, 13.652872083999682, 16.271526042000914, 17.54804754200086, 17.732813583999814, 19.53482633400199]",0,,,,,,,Dulce2,001,2022-11-05_14h06.44.952,DS_Adapt1L,2022.2.4,60.12612946794062,
8,4,1,7,3,6,2,5,9,1,6,3,0,0,0,0,"['8', '4', '1']","['8', '4', '1', '7']","['8', '4', '1', '7', '3']","['8', '4', '1', '7', '3', '6']","['8', '4', '1', '7', '3', '6', '2']","['8', '4', '1', '7', '3', '6', '2', '5']","['8', '4', '1', '7', '3', '6', '2', '5', '9']","['8', '4', '1', '7', '3', '6', '2', '5', '9', '1']","['8', '4', '1', '7', '3', '6', '2', '5', '9', '1', '6']","['8', '4', '1', '7', '3', '6', '2', '5', '9', '1', '6', '3']",None,None,None,None,,,,,0,9,9,9,,,,,,6418491,,,,,,7,"['6', '4', '1', '8', '4', '9', '1']",0,"[16.81550045900076, 17.298369791998994, 17.749681249999412, 46.973333750000165, 47.133466458999465, 47.37466562500049, 47.87188554200111, 51.14641954200124]",0,,,,,,,Dulce2,001,2022-11-05_14h06.44.952,DS_Adapt1L,2022.2.4,60.12612946794062,
5,9,4,1,6,9,3,8,2,6,1,8,2,0,0,0,"['5', '9', '4']","['5', '9', '4', '1']","['5', '9', '4', '1', '6']","['5', '9', '4', '1', '6', '9']","['5', '9', '4', '1', '6', '9', '3']","['5', '9', '4', '1', '6', '9', '3', '8']","['5', '9', '4', '1', '6', '9', '3', '8', '2']","['5', '9', '4', '1', '6', '9', '3', '8', '2', '6']","['5', '9', '4', '1', '6', '9', '3', '8', '2', '6', '1']","['5', '9', '4', '1', '6', '9', '3', '8', '2', '6', '1', '8']","['5', '9', '4', '1', '6', '9', '3', '8', '2', '6', '1', '8', '2']",None,None,None,,,,,0,10,10,10,,,,,,594169,,,,,,6,"['5', '9', '4', '1', '6', '9']",0,"[1.588499084002251, 2.0768091259997163, 2.6362596260005375, 3.199487293000857, 3.6498082510006498, 4.150966376000724, 8.337158709000505]",1,,,,,,,Dulce2,001,2022-11-05_14h06.44.952,DS_Adapt1L,2022.2.4,60.12612946794062,
3,7,2,5,8,4,1,9,6,3,7,1,4,8,0,0,"['3', '7', '2']","['3', '7', '2', '5']","['3', '7', '2', '5', '8']","['3', '7', '2', '5', '8', '4']","['3', '7', '2', '5', '8', '4', '1']","['3', '7', '2', '5', '8', '4', '1', '9']","['3', '7', '2', '5', '8', '4', '1', '9', '6']","['3', '7', '2', '5', '8', '4', '1', '9', '6', '3']","['3', '7', '2', '5', '8', '4', '1', '9', '6', '3', '7']","['3', '7', '2', '5', '8', '4', '1', '9', '6', '3', '7', '1']","['3', '7', '2', '5', '8', '4', '1', '9', '6', '3', '7', '1', '4']","['3', '7', '2', '5', '8', '4', '1', '9', '6', '3', '7', '1', '4', '8']",None,None,,,,,0,11,11,11,,,,,,3725841,,,,,,7,"['3', '7', '2', '5', '8', '4', '1']",0,"[1.8498354170042148, 2.3322322920030274, 2.9215430000040215, 3.348999542002275, 3.79409895900244, 4.223644000001514, 4.327647417001572, 16.713323459003732]",1,,,,,,,Dulce2,001,2022-11-05_14h06.44.952,DS_Adapt1L,2022.2.4,60.12612946794062,
9,4,8,3,7,1,5,2,6,3,9,1,6,2,7,0,"['9', '4', '8']","['9', '4', '8', '3']","['9', '4', '8', '3', '7']","['9', '4', '8', '3', '7', '1']","['9', '4', '8', '3', '7', '1', '5']","['9', '4', '8', '3', '7', '1', '5', '2']","['9', '4', '8', '3', '7', '1', '5', '2', '6']","['9', '4', '8', '3', '7', '1', '5', '2', '6', '3']","['9', '4', '8', '3', '7', '1', '5', '2', '6', '3', '9']","['9', '4', '8', '3', '7', '1', '5', '2', '6', '3', '9', '1']","['9', '4', '8', '3', '7', '1', '5', '2', '6', '3', '9', '1', '6']","['9', '4', '8', '3', '7', '1', '5', '2', '6', '3', '9', '1', '6', '2']","['9', '4', '8', '3', '7', '1', '5', '2', '6', '3', '9', '1', '6', '2', '7']",None,,,,,0,12,12,12,,,,,,9483172,,,,,,8,"['9', '4', '8', '3', '1', '7', '2']",0,"[4.400272834001953, 5.004305459002353, 5.589041000999714, 6.162298126000678, 16.52734629200131, 16.954807001002337, 17.290014084002905, 21.782161626000743]",0,,,,,,,Dulce2,001,2022-11-05_14h06.44.952,DS_Adapt1L,2022.2.4,60.12612946794062,
1,5,9,4,7,3,8,2,6,2,7,3,6,1,5,8,"['1', '5', '9']","['1', '5', '9', '4']","['1', '5', '9', '4', '7']","['1', '5', '9', '4', '7', '3']","['1', '5', '9', '4', '7', '3', '8']","['1', '5', '9', '4', '7', '3', '8', '2']","['1', '5', '9', '4', '7', '3', '8', '2', '6']","['1', '5', '9', '4', '7', '3', '8', '2', '6', '2']","['1', '5', '9', '4', '7', '3', '8', '2', '6', '2', '7']","['1', '5', '9', '4', '7', '3', '8', '2', '6', '2', '7', '3']","['1', '5', '9', '4', '7', '3', '8', '2', '6', '2', '7', '3', '6']","['1', '5', '9', '4', '7', '3', '8', '2', '6', '2', '7', '3', '6', '1']","['1', '5', '9', '4', '7', '3', '8', '2', '6', '2', '7', '3', '6', '1', '5']","['1', '5', '9', '4', '7', '3', '8', '2', '6', '2', '7', '3', '6', '1', '5', '8']",,,,,0,13,13,13,,,,,,1749281,,,,,,8,"['1', '7', '4', '9', '2', '8', '1']",0,"[2.9617021670019312, 6.288818084001832, 6.798375959002442, 22.615381876003084, 23.372001959003683, 33.56014633400264, 33.950494751003134, 34.65554154200436]",0,,,,,,,Dulce2,001,2022-11-05_14h06.44.952,DS_Adapt1L,2022.2.4,60.12612946794062,
None,None,None,None,None,None,None,None,None,None,None,None,None,None,None,None,None,None,None,None,None,None,None,None,None,None,None,None,None,None,,,,,0,14,14,14,,,,,,154972,,,,,,7,"['1', '5', '4', '9', '7', '2']",0,"[4.043771626002126, 6.657775876003143, 6.909141959004046, 7.134042167002917, 13.246834459001548, 16.68645333400127, 17.200262584003212]",0,,,,,,,Dulce2,001,2022-11-05_14h06.44.952,DS_Adapt1L,2022.2.4,60.12612946794062,
1,5,9,0,0,0,0,0,0,0,0,0,0,0,0,0,"['9', '5', '1']",None,None,None,None,None,None,None,None,None,None,None,None,None,,,,,,,,,0,0,0,0,,951,,,,,,,,,,1,6.166666666666667,3,"['9', '5', '1']",0,"[0.6823834590031765, 1.1043355010006053, 1.3232516260031844, 2.0553469590013265]",,Dulce2,001,2022-11-05_14h06.44.952,DS_Adapt1L,2022.2.4,60.12612946794062,
4,7,3,8,0,0,0,0,0,0,0,0,0,0,0,0,"['3', '7', '4']","['8', '3', '7', '4']",None,None,None,None,None,None,None,None,None,None,None,None,,,,,,,,,0,1,1,1,,8374,,,,,,,,,,1,,4,"['8', '3', '7', '4']",0,"[1.0078253760002553, 1.9174628340006166, 4.213522459001979, 4.582497293002234, 7.042706209002063]",,Dulce2,001,2022-11-05_14h06.44.952,DS_Adapt1L,2022.2.4,60.12612946794062,
2,6,1,7,3,0,0,0,0,0,0,0,0,0,0,0,"['1', '6', '2']","['7', '1', '6', '2']","['3', '7', '1', '6', '2']",None,None,None,None,None,None,None,None,None,None,None,,,,,,,,,0,2,2,2,,3712,,,,,,,,,,0,,5,"['3', '7', '1', '2']",0,"[1.9984455010016973, 2.614816667002742, 13.870215376002307, 14.021168959003262, 14.947104792001483]",,Dulce2,001,2022-11-05_14h06.44.952,DS_Adapt1L,2022.2.4,60.12612946794062,
6,1,5,9,4,8,0,0,0,0,0,0,0,0,0,0,"['5', '1', '6']","['9', '5', '1', '6']","['4', '9', '5', '1', '6']","['8', '4', '9', '5', '1', '6']",None,None,None,None,None,None,None,None,None,None,,,,,,,,,0,3,3,3,,4952,,,,,,,,,,0,,5,"['4', '9', '5', '2']",0,"[2.182854334001604, 2.8757032499997877, 4.552995124999143, 8.31330862500181, 14.017843708999862]",,Dulce2,001,2022-11-05_14h06.44.952,DS_Adapt1L,2022.2.4,60.12612946794062,
3,7,1,5,2,6,9,0,0,0,0,0,0,0,0,0,"['1', '7', '3']","['5', '1', '7', '3']","['2', '5', '1', '7', '3']","['6', '2', '5', '1', '7', '3']","['9', '6', '2', '5', '1', '7', '3']",None,None,None,None,None,None,None,None,None,,,,,,,,,0,4,4,4,,5173,,,,,,,,,,1,,4,"['5', '1', '7', '3']",0,"[2.0202540419995785, 2.8616012500024226, 4.8576226250006584, 5.315274667002086, 8.438266250002926]",,Dulce2,001,2022-11-05_14h06.44.952,DS_Adapt1L,2022.2.4,60.12612946794062,
9,3,6,2,5,8,4,1,0,0,0,0,0,0,0,0,"['6', '3', '9']","['2', '6', '3', '9']","['5', '2', '6', '3', '9']","['8', '5', '2', '6', '3', '9']","['4', '8', '5', '2', '6', '3', '9']","['1', '4', '8', '5', '2', '6', '3', '9']",None,None,None,None,None,None,None,None,,,,,,,,,0,5,5,5,,52639,,,,,,,,,,1,,5,"['5', '2', '6', '3', '9']",0,"[1.6361747090013523, 2.4335185420022754, 7.498311584004114, 8.949938167002983, 9.823511000002327, 10.62678500000402]",,Dulce2,001,2022-11-05_14h06.44.952,DS_Adapt1L,2022.2.4,60.12612946794062,
1,7,4,9,5,8,3,6,2,0,0,0,0,0,0,0,"['4', '7', '1']","['9', '4', '7', '1']","['5', '9', '4', '7', '1']","['8', '5', '9', '4', '7', '1']","['3', '8', '5', '9', '4', '7', '1']","['6', '3', '8', '5', '9', '4', '7', '1']","['2', '6', '3', '8', '5', '9', '4', '7', '1']",None,None,None,None,None,None,None,,,,,,,,,0,6,6,6,,859492,,,,,,,,,,0,,6,"['8', '5', '9', '4', '9', '2']",0,"[9.193035459004022, 9.942267376001837, 11.234232251004869, 15.198978417003673, 20.979903209004988, 21.623205042003974, 22.446799209003075]",,Dulce2,001,2022-11-05_14h06.44.952,DS_Adapt1L,2022.2.4,60.12612946794062,
8,2,6,3,7,1,4,9,5,2,0,0,0,0,0,0,"['6', '2', '8']","['3', '6', '2', '8']","['7', '3', '6', '2', '8']","['1', '7', '3', '6', '2', '8']","['4', '1', '7', '3', '6', '2', '8']","['9', '4', '1', '7', '3', '6', '2', '8']","['5', '9', '4', '1', '7', '3', '6', '2', '8']","['2', '5', '9', '4', '1', '7', '3', '6', '2', '8']",None,None,None,None,None,None,,,,,,,,,0,7,7,7,,173629,,,,,,,,,,0,,6,"['1', '7', '3', '6', '2', '9']",0,"[1.7429545420018258, 2.298674417001166, 2.7663912499992875, 5.567735791999439, 5.891343292001693, 6.367497416998958, 6.849479042000894]",,Dulce2,001,2022-11-05_14h06.44.952,DS_Adapt1L,2022.2.4,60.12612946794062,
3,8,1,9,6,2,5,8,4,7,1,0,0,0,0,0,"['1', '8', '3']","['9', '1', '8', '3']","['6', '9', '1', '8', '3']","['2', '6', '9', '1', '8', '3']","['5', '2', '6', '9', '1', '8', '3']","['8', '5', '2', '6', '9', '1', '8', '3']","['4', '8', '5', '2', '6', '9', '1', '8', '3']","['7', '4', '8', '5', '2', '6', '9', '1', '8', '3']","['1', '7', '4', '8', '5', '2', '6', '9', '1', '8', '3']",None,None,None,None,None,,,,,,,,,0,8,8,8,,69168,,,,,,,,,,0,,5,"['6', '9', '1', '6', '8']",0,"[2.0040565000017523, 2.518696709001233, 6.865736209001625, 7.01677225000094, 8.78164533400195, 11.02267333400232]",,Dulce2,001,2022-11-05_14h06.44.952,DS_Adapt1L,2022.2.4,60.12612946794062,
9,5,1,4,8,2,6,3,7,3,1,9,0,0,0,0,"['1', '5', '9']","['4', '1', '5', '9']","['8', '4', '1', '5', '9']","['2', '8', '4', '1', '5', '9']","['6', '2', '8', '4', '1', '5', '9']","['3', '6', '2', '8', '4', '1', '5', '9']","['7', '3', '6', '2', '8', '4', '1', '5', '9']","['3', '7', '3', '6', '2', '8', '4', '1', '5', '9']","['1', '3', '7', '3', '6', '2', '8', '4', '1', '5', '9']","['9', '1', '3', '7', '3', '6', '2', '8', '4', '1', '5', '9']",None,None,None,None,,,,,,,,,0,9,9,9,,841169,,,,,,,,,,0,,5,"['8', '4', '1', '1', '6', '9']",0,"[9.1983352510033, 10.601130042003206, 12.985042416999931, 17.05965104200004, 17.512702001000434, 18.072357209002803, 21.036527251002553]",,Dulce2,001,2022-11-05_14h06.44.952,DS_Adapt1L,2022.2.4,60.12612946794062,
5,8,4,1,9,2,7,3,6,2,8,1,6,0,0,0,"['4', '8', '5']","['1', '4', '8', '5']","['9', '1', '4', '8', '5']","['2', '9', '1', '4', '8', '5']","['7', '2', '9', '1', '4', '8', '5']","['3', '7', '2', '9', '1', '4', '8', '5']","['6', '3', '7', '2', '9', '1', '4', '8', '5']","['2', '6', '3', '7', '2', '9', '1', '4', '8', '5']","['8', '2', '6', '3', '7', '2', '9', '1', '4', '8', '5']","['1', '8', '2', '6', '3', '7', '2', '9', '1', '4', '8', '5']","['6', '1', '8', '2', '6', '3', '7', '2', '9', '1', '4', '8', '5']",None,None,None,,,,,,,,,0,10,10,10,,1485,,,,,,,,,,1,,4,"['1', '4', '8', '5']",0,"[7.355909542002337, 8.10934450100467, 9.177618042001995, 9.81609254200157, 12.149302584002726]",,Dulce2,001,2022-11-05_14h06.44.952,DS_Adapt1L,2022.2.4,60.12612946794062,
1,6,9,4,7,2,5,8,3,9,4,7,2,6,0,0,"['9', '6', '1']","['4', '9', '6', '1']","['7', '4', '9', '6', '1']","['2', '7', '4', '9', '6', '1']","['5', '2', '7', '4', '9', '6', '1']","['8', '5', '2', '7', '4', '9', '6', '1']","['3', '8', '5', '2', '7', '4', '9', '6', '1']","['9', '3', '8', '5', '2', '7', '4', '9', '6', '1']","['4', '9', '3', '8', '5', '2', '7', '4', '9', '6', '1']","['7', '4', '9', '3', '8', '5', '2', '7', '4', '9', '6', '1']","['2', '7', '4', '9', '3', '8', '5', '2', '7', '4', '9', '6', '1']","['6', '2', '7', '4', '9', '3', '8', '5', '2', '7', '4', '9', '6', '1']",None,None,,,,,,,,,0,11,11,11,,74961,,,,,,,,,,1,,5,"['7', '4', '9', '6', '1']",0,"[2.9432725420010684, 7.267206417003763, 7.932395500003622, 9.28287525000269, 9.672665959002188, 10.907554917001107]",,Dulce2,001,2022-11-05_14h06.44.952,DS_Adapt1L,2022.2.4,60.12612946794062,
2,7,4,9,1,6,3,8,5,9,4,1,7,2,8,0,"['4', '7', '2']","['9', '4', '7', '2']","['1', '9', '4', '7', '2']","['6', '1', '9', '4', '7', '2']","['3', '6', '1', '9', '4', '7', '2']","['8', '3', '6', '1', '9', '4', '7', '2']","['5', '8', '3', '6', '1', '9', '4', '7', '2']","['9', '5', '8', '3', '6', '1', '9', '4', '7', '2']","['4', '9', '5', '8', '3', '6', '1', '9', '4', '7', '2']","['1', '4', '9', '5', '8', '3', '6', '1', '9', '4', '7', '2']","['7', '1', '4', '9', '5', '8', '3', '6', '1', '9', '4', '7', '2']","['2', '7', '1', '4', '9', '5', '8', '3', '6', '1', '9', '4', '7', '2']","['8', '2', '7', '1', '4', '9', '5', '8', '3', '6', '1', '9', '4', '7', '2']",None,,,,,,,,,0,12,12,12,,619472,,,,,,,,,,1,,6,"['6', '1', '9', '4', '7', '2']",0,"[1.2815178759992705, 1.9619575010001427, 6.641803500999231, 7.536168376002024, 9.798997834001057, 10.273098334000679, 12.630160084001545]",,Dulce2,001,2022-11-05_14h06.44.952,DS_Adapt1L,2022.2.4,60.12612946794062,
7,1,4,8,2,6,3,9,5,8,5,9,1,4,7,2,"['4', '1', '7']","['8', '4', '1', '7']","['2', '8', '4', '1', '7']","['6', '2', '8', '4', '1', '7']","['3', '6', '2', '8', '4', '1', '7']","['9', '3', '6', '2', '8', '4', '1', '7']","['5', '9', '3', '6', '2', '8', '4', '1', '7']","['8', '5', '9', '3', '6', '2', '8', '4', '1', '7']","['5', '8', '5', '9', '3', '6', '2', '8', '4', '1', '7']","['9', '5', '8', '5', '9', '3', '6', '2', '8', '4', '1', '7']","['1', '9', '5', '8', '5', '9', '3', '6', '2', '8', '4', '1', '7']","['4', '1', '9', '5', '8', '5', '9', '3', '6', '2', '8', '4', '1', '7']","['7', '4', '1', '9', '5', '8', '5', '9', '3', '6', '2', '8', '4', '1', '7']","['2', '7', '4', '1', '9', '5', '8', '5', '9', '3', '6', '2', '8', '4', '1', '7']",,,,,,,,,0,13,13,13,,3679417,,,,,,,,,,0,,7,"['3', '6', '7', '9', '4', '1', '7']",0,"[1.8277727929998946, 2.7830303340015234, 14.853160293001565, 17.930573793000804, 18.47863004300234, 25.197253084003023, 25.74911179300034, 36.32715550100329]",,Dulce2,001,2022-11-05_14h06.44.952,DS_Adapt1L,2022.2.4,60.12612946794062,
,,,,,,,,,,,,,,,,,,,,,,,,,,,,,,,,,,,,,,,,,,,,,,,,,,,,,,,,,,,5.666666666666666,,,,,,,
