S1,S2,S3,S4,S5,S6,S7,S8,S9,S10,S11,S12,S13,S14,S15,S16,CorrAns3,CorrAns4,CorrAns5,CorrAns6,CorrAns7,CorrAns8,CorrAns9,CorrAns10,CorrAns11,CorrAns12,CorrAns13,CorrAns14,CorrAns15,CorrAns16,trials_2.thisRepN,trials_2.thisTrialN,trials_2.thisN,trials_2.thisIndex,trials.thisRepN,trials.thisTrialN,trials.thisN,trials.thisIndex,trials_3.thisRepN,trials_3.thisTrialN,trials_3.thisN,trials_3.thisIndex,Seq4_tr.started,recall_resp,key_resp_4.keys,key_resp_4.corr,key_resp_4.rt,Seq4_tr.stopped,text_go.started,key_resp_5.started,DS,key_resp2_2.keys,key_resp2_2.corr,key_resp2_2.rt,score,Forward WM score,B_DS,key_resp2_2B.keys,key_resp2_2B.corr,key_resp2_2B.rt,Backward WM score,participant,session,date,expName,psychopyVersion,frameRate,
8,1,6,0,0,0,0,0,0,0,0,0,0,0,0,0,"['8', '1', '6']",None,None,None,None,None,None,None,None,None,None,None,None,None,,,,,0,0,0,0,,,,,82.34439770004246,816,"['1', '2', '3', '4']",0,"[1.6833952000597492, 1.9377677000593394, 2.229039300000295, 2.5037087000673637, 3.936455799965188]",83.34469800000079,87.79287889995612,87.79287889995612,3,"['8', '1', '6']",0,"[1.832971900003031, 2.270248100045137, 2.646129100001417, 3.672833799966611]",1,,,,,,,ezraquintana2,001,2022-11-03_15h16.07.771,DS_Adapt1L,2022.2.4,60.2882865621468,
4,7,2,9,0,0,0,0,0,0,0,0,0,0,0,0,"['4', '7', '2']","['4', '7', '2', '9']",None,None,None,None,None,None,None,None,None,None,None,None,,,,,0,1,1,1,,,,,,4729,,,,,,,4,"['4', '7', '2', '9']",0,"[1.91864849999547, 2.52952949993778, 3.0910517999436706, 3.348827200010419, 5.5372997999656945]",1,,,,,,,ezraquintana2,001,2022-11-03_15h16.07.771,DS_Adapt1L,2022.2.4,60.2882865621468,
6,9,1,7,2,0,0,0,0,0,0,0,0,0,0,0,"['6', '9', '1']","['6', '9', '1', '7']","['6', '9', '1', '7', '2']",None,None,None,None,None,None,None,None,None,None,None,,,,,0,2,2,2,,,,,,69172,,,,,,,5,"['6', '9', '1', '7', '2']",0,"[1.3390846999827772, 2.0840108999982476, 2.7292753000510857, 3.161123999976553, 3.444718800019473, 4.746631299960427]",1,,,,,,,ezraquintana2,001,2022-11-03_15h16.07.771,DS_Adapt1L,2022.2.4,60.2882865621468,
7,9,4,1,8,2,0,0,0,0,0,0,0,0,0,0,"['7', '9', '4']","['7', '9', '4', '1']","['7', '9', '4', '1', '8']","['7', '9', '4', '1', '8', '2']",None,None,None,None,None,None,None,None,None,None,,,,,0,3,3,3,,,,,,794182,,,,,,,6,"['7', '9', '4', '1', '8', '2']",0,"[1.4518054999643937, 1.975372500019148, 2.6401807999936864, 3.1042248000157997, 3.586364099988714, 4.09240189997945, 6.072715500020422]",1,,,,,,,ezraquintana2,001,2022-11-03_15h16.07.771,DS_Adapt1L,2022.2.4,60.2882865621468,
5,2,8,4,7,3,9,0,0,0,0,0,0,0,0,0,"['5', '2', '8']","['5', '2', '8', '4']","['5', '2', '8', '4', '7']","['5', '2', '8', '4', '7', '3']","['5', '2', '8', '4', '7', '3', '9']",None,None,None,None,None,None,None,None,None,,,,,0,4,4,4,,,,,,5274832,,,,,,,7,"['5', '2', '7', '4', '8', '3', '2']",0,"[1.6857743000146002, 2.685168700059876, 3.3017840000102296, 3.791394800064154, 7.008198900031857, 7.307353600044735, 7.55011359998025, 8.815118000027724]",0,,,,,,,ezraquintana2,001,2022-11-03_15h16.07.771,DS_Adapt1L,2022.2.4,60.2882865621468,
2,5,1,7,4,9,3,8,0,0,0,0,0,0,0,0,"['2', '5', '1']","['2', '5', '1', '7']","['2', '5', '1', '7', '4']","['2', '5', '1', '7', '4', '9']","['2', '5', '1', '7', '4', '9', '3']","['2', '5', '1', '7', '4', '9', '3', '8']",None,None,None,None,None,None,None,None,,,,,0,5,5,5,,,,,,2157493,,,,,,,7,"['2', '1', '5', '7', '4', '9', '3']",0,"[1.8724372999276966, 2.1284188999561593, 2.6460111000342295, 3.3762682999949902, 3.8890033999923617, 4.261910200002603, 4.645536000025459, 6.146101600024849]",0,,,,,,,ezraquintana2,001,2022-11-03_15h16.07.771,DS_Adapt1L,2022.2.4,60.2882865621468,
6,2,5,8,3,9,4,1,7,0,0,0,0,0,0,0,"['6', '2', '5']","['6', '2', '5', '8']","['6', '2', '5', '8', '3']","['6', '2', '5', '8', '3', '9']","['6', '2', '5', '8', '3', '9', '4']","['6', '2', '5', '8', '3', '9', '4', '1']","['6', '2', '5', '8', '3', '9', '4', '1', '7']",None,None,None,None,None,None,None,,,,,0,6,6,6,,,,,,7665839,,,,,,,6,"['7', '6', '6', '5', '8', '3', '9']",0,"[1.8519653000403196, 2.8222476000664756, 3.589746000012383, 4.063338400097564, 5.471306000021286, 6.185647400096059, 6.532706400030293, 7.817206400097348]",0,,,,,,,ezraquintana2,001,2022-11-03_15h16.07.771,DS_Adapt1L,2022.2.4,60.2882865621468,
1,7,3,8,4,9,5,2,6,9,0,0,0,0,0,0,"['1', '7', '3']","['1', '7', '3', '8']","['1', '7', '3', '8', '4']","['1', '7', '3', '8', '4', '9']","['1', '7', '3', '8', '4', '9', '5']","['1', '7', '3', '8', '4', '9', '5', '2']","['1', '7', '3', '8', '4', '9', '5', '2', '6']","['1', '7', '3', '8', '4', '9', '5', '2', '6', '9']",None,None,None,None,None,None,,,,,0,7,7,7,,,,,,177349,,,,,,,6,"['1', '7', '7', '3', '4', '9']",0,"[4.041448300005868, 4.236411100020632, 5.421373600023799, 5.7734445000533015, 6.623375200084411, 7.645304900011979, 9.566963599994779]",0,,,,,,,ezraquintana2,001,2022-11-03_15h16.07.771,DS_Adapt1L,2022.2.4,60.2882865621468,
4,9,6,2,5,8,1,7,3,7,4,0,0,0,0,0,"['4', '9', '6']","['4', '9', '6', '2']","['4', '9', '6', '2', '5']","['4', '9', '6', '2', '5', '8']","['4', '9', '6', '2', '5', '8', '1']","['4', '9', '6', '2', '5', '8', '1', '7']","['4', '9', '6', '2', '5', '8', '1', '7', '3']","['4', '9', '6', '2', '5', '8', '1', '7', '3', '7']","['4', '9', '6', '2', '5', '8', '1', '7', '3', '7', '4']",None,None,None,None,None,,,,,0,8,8,8,,,,,,79625,,,,,,,5,"['7', '9', '6', '2', '5']",0,"[2.2446078000357375, 2.687631200067699, 3.178648700006306, 3.7431408000411466, 3.932540800073184, 5.355421500047669]",0,,,,,,,ezraquintana2,001,2022-11-03_15h16.07.771,DS_Adapt1L,2022.2.4,60.2882865621468,
8,4,1,7,3,6,2,5,9,1,6,3,0,0,0,0,"['8', '4', '1']","['8', '4', '1', '7']","['8', '4', '1', '7', '3']","['8', '4', '1', '7', '3', '6']","['8', '4', '1', '7', '3', '6', '2']","['8', '4', '1', '7', '3', '6', '2', '5']","['8', '4', '1', '7', '3', '6', '2', '5', '9']","['8', '4', '1', '7', '3', '6', '2', '5', '9', '1']","['8', '4', '1', '7', '3', '6', '2', '5', '9', '1', '6']","['8', '4', '1', '7', '3', '6', '2', '5', '9', '1', '6', '3']",None,None,None,None,,,,,0,9,9,9,,,,,,84173,,,,,,,5,"['8', '4', '1', '7', '3']",0,"[2.009495300007984, 2.492454400053248, 3.123544500092976, 3.3234968000324443, 3.660783000057563, 4.627699900069274]",1,,,,,,,ezraquintana2,001,2022-11-03_15h16.07.771,DS_Adapt1L,2022.2.4,60.2882865621468,
5,9,4,1,6,9,3,8,2,6,1,8,2,0,0,0,"['5', '9', '4']","['5', '9', '4', '1']","['5', '9', '4', '1', '6']","['5', '9', '4', '1', '6', '9']","['5', '9', '4', '1', '6', '9', '3']","['5', '9', '4', '1', '6', '9', '3', '8']","['5', '9', '4', '1', '6', '9', '3', '8', '2']","['5', '9', '4', '1', '6', '9', '3', '8', '2', '6']","['5', '9', '4', '1', '6', '9', '3', '8', '2', '6', '1']","['5', '9', '4', '1', '6', '9', '3', '8', '2', '6', '1', '8']","['5', '9', '4', '1', '6', '9', '3', '8', '2', '6', '1', '8', '2']",None,None,None,,,,,0,10,10,10,,,,,,594169,,,,,,,6,"['5', '9', '4', '1', '6', '9']",0,"[2.6338595000561327, 3.3899967999896035, 4.373365800012834, 4.7182821000460535, 5.649183699977584, 6.1944759000325575, 7.289627899997868]",1,,,,,,,ezraquintana2,001,2022-11-03_15h16.07.771,DS_Adapt1L,2022.2.4,60.2882865621468,
3,7,2,5,8,4,1,9,6,3,7,1,4,8,0,0,"['3', '7', '2']","['3', '7', '2', '5']","['3', '7', '2', '5', '8']","['3', '7', '2', '5', '8', '4']","['3', '7', '2', '5', '8', '4', '1']","['3', '7', '2', '5', '8', '4', '1', '9']","['3', '7', '2', '5', '8', '4', '1', '9', '6']","['3', '7', '2', '5', '8', '4', '1', '9', '6', '3']","['3', '7', '2', '5', '8', '4', '1', '9', '6', '3', '7']","['3', '7', '2', '5', '8', '4', '1', '9', '6', '3', '7', '1']","['3', '7', '2', '5', '8', '4', '1', '9', '6', '3', '7', '1', '4']","['3', '7', '2', '5', '8', '4', '1', '9', '6', '3', '7', '1', '4', '8']",None,None,,,,,0,11,11,11,,,,,,3725871,,,,,,,7,"['3', '7', '2', '5', '8', '7', '1']",0,"[2.163044000044465, 2.7041250000474975, 3.548886900069192, 3.843669000081718, 6.539118700078689, 7.939283900079317, 8.096637400100008, 9.450184300076216]",0,,,,,,,ezraquintana2,001,2022-11-03_15h16.07.771,DS_Adapt1L,2022.2.4,60.2882865621468,
9,4,8,3,7,1,5,2,6,3,9,1,6,2,7,0,"['9', '4', '8']","['9', '4', '8', '3']","['9', '4', '8', '3', '7']","['9', '4', '8', '3', '7', '1']","['9', '4', '8', '3', '7', '1', '5']","['9', '4', '8', '3', '7', '1', '5', '2']","['9', '4', '8', '3', '7', '1', '5', '2', '6']","['9', '4', '8', '3', '7', '1', '5', '2', '6', '3']","['9', '4', '8', '3', '7', '1', '5', '2', '6', '3', '9']","['9', '4', '8', '3', '7', '1', '5', '2', '6', '3', '9', '1']","['9', '4', '8', '3', '7', '1', '5', '2', '6', '3', '9', '1', '6']","['9', '4', '8', '3', '7', '1', '5', '2', '6', '3', '9', '1', '6', '2']","['9', '4', '8', '3', '7', '1', '5', '2', '6', '3', '9', '1', '6', '2', '7']",None,,,,,0,12,12,12,,,,,,9483741,,,,,,,7,"['9', '4', '8', '3', '7', '4', '1']",0,"[1.6975970000494272, 2.6093712999718264, 3.8270010000560433, 4.721317599993199, 5.407677000039257, 5.642155300010927, 6.3818073000293225, 9.426475499989465]",0,,,,,,,ezraquintana2,001,2022-11-03_15h16.07.771,DS_Adapt1L,2022.2.4,60.2882865621468,
1,5,9,4,7,3,8,2,6,2,7,3,6,1,5,8,"['1', '5', '9']","['1', '5', '9', '4']","['1', '5', '9', '4', '7']","['1', '5', '9', '4', '7', '3']","['1', '5', '9', '4', '7', '3', '8']","['1', '5', '9', '4', '7', '3', '8', '2']","['1', '5', '9', '4', '7', '3', '8', '2', '6']","['1', '5', '9', '4', '7', '3', '8', '2', '6', '2']","['1', '5', '9', '4', '7', '3', '8', '2', '6', '2', '7']","['1', '5', '9', '4', '7', '3', '8', '2', '6', '2', '7', '3']","['1', '5', '9', '4', '7', '3', '8', '2', '6', '2', '7', '3', '6']","['1', '5', '9', '4', '7', '3', '8', '2', '6', '2', '7', '3', '6', '1']","['1', '5', '9', '4', '7', '3', '8', '2', '6', '2', '7', '3', '6', '1', '5']","['1', '5', '9', '4', '7', '3', '8', '2', '6', '2', '7', '3', '6', '1', '5', '8']",,,,,0,13,13,13,,,,,,1594731,,,,,,,6,"['1', '5', '9', '4', '7', '3', '1']",0,"[2.6426549999741837, 2.9549658000469208, 3.599616799969226, 5.368446400039829, 6.310716100037098, 6.771654900046997, 11.671434300020337, 12.445784199982882]",0,,,,,,,ezraquintana2,001,2022-11-03_15h16.07.771,DS_Adapt1L,2022.2.4,60.2882865621468,
None,None,None,None,None,None,None,None,None,None,None,None,None,None,None,None,None,None,None,None,None,None,None,None,None,None,None,None,None,None,,,,,0,14,14,14,,,,,,159473,,,,,,,6,"['1', '5', '9', '4', '7', '3']",0,"[2.4864894000347704, 2.9169381000101566, 4.050285100005567, 4.801290599978529, 5.557803399977274, 5.780273400014266, 6.6460162999574095]",0,,,,,,,ezraquintana2,001,2022-11-03_15h16.07.771,DS_Adapt1L,2022.2.4,60.2882865621468,
1,5,9,0,0,0,0,0,0,0,0,0,0,0,0,0,"['9', '5', '1']",None,None,None,None,None,None,None,None,None,None,None,None,None,,,,,,,,,0,0,0,0,,951,,,,,,,,,,,1,5.5,3,"['9', '5', '1']",0,"[1.9204542000079527, 2.5632728000637144, 2.8190524000674486, 3.949842600035481]",,ezraquintana2,001,2022-11-03_15h16.07.771,DS_Adapt1L,2022.2.4,60.2882865621468,
4,7,3,8,0,0,0,0,0,0,0,0,0,0,0,0,"['3', '7', '4']","['8', '3', '7', '4']",None,None,None,None,None,None,None,None,None,None,None,None,,,,,,,,,0,1,1,1,,8374,,,,,,,,,,,1,,4,"['8', '3', '7', '4']",0,"[1.2187463999725878, 1.9161642999388278, 2.7377901999279857, 3.4310493998927996, 4.922581099905074]",,ezraquintana2,001,2022-11-03_15h16.07.771,DS_Adapt1L,2022.2.4,60.2882865621468,
2,6,1,7,3,0,0,0,0,0,0,0,0,0,0,0,"['1', '6', '2']","['7', '1', '6', '2']","['3', '7', '1', '6', '2']",None,None,None,None,None,None,None,None,None,None,None,,,,,,,,,0,2,2,2,,37162,,,,,,,,,,,1,,5,"['3', '7', '1', '6', '2']",0,"[4.428837599931285, 5.124895500019193, 5.460744599928148, 9.122904999996535, 9.51244449999649, 11.104564999928698]",,ezraquintana2,001,2022-11-03_15h16.07.771,DS_Adapt1L,2022.2.4,60.2882865621468,
6,1,5,9,4,8,0,0,0,0,0,0,0,0,0,0,"['5', '1', '6']","['9', '5', '1', '6']","['4', '9', '5', '1', '6']","['8', '4', '9', '5', '1', '6']",None,None,None,None,None,None,None,None,None,None,,,,,,,,,0,3,3,3,,491596,,,,,,,,,,,0,,6,"['4', '9', '1', '5', '9', '6']",0,"[2.5392920000012964, 3.45552439999301, 4.963376599946059, 5.796801600023173, 7.482069200021215, 8.141194600029849, 9.167537400033325]",,ezraquintana2,001,2022-11-03_15h16.07.771,DS_Adapt1L,2022.2.4,60.2882865621468,
3,7,1,5,2,6,9,0,0,0,0,0,0,0,0,0,"['1', '7', '3']","['5', '1', '7', '3']","['2', '5', '1', '7', '3']","['6', '2', '5', '1', '7', '3']","['9', '6', '2', '5', '1', '7', '3']",None,None,None,None,None,None,None,None,None,,,,,,,,,0,4,4,4,,625173,,,,,,,,,,,1,,6,"['6', '2', '5', '1', '7', '3']",0,"[1.982020000112243, 2.505215600016527, 9.196133800083771, 9.385553600033745, 13.866825800039805, 14.25419080001302, 16.734891000087373]",,ezraquintana2,001,2022-11-03_15h16.07.771,DS_Adapt1L,2022.2.4,60.2882865621468,
9,3,6,2,5,8,4,1,0,0,0,0,0,0,0,0,"['6', '3', '9']","['2', '6', '3', '9']","['5', '2', '6', '3', '9']","['8', '5', '2', '6', '3', '9']","['4', '8', '5', '2', '6', '3', '9']","['1', '4', '8', '5', '2', '6', '3', '9']",None,None,None,None,None,None,None,None,,,,,,,,,0,5,5,5,,482639,,,,,,,,,,,0,,7,"['4', '8', '2', '6', '3', '9']",0,"[2.524271099944599, 3.3795628999359906, 3.935027099912986, 14.010476199910045, 16.721446799929254, 17.425612999941222, 20.374548599938862]",,ezraquintana2,001,2022-11-03_15h16.07.771,DS_Adapt1L,2022.2.4,60.2882865621468,
1,7,4,9,5,8,3,6,2,0,0,0,0,0,0,0,"['4', '7', '1']","['9', '4', '7', '1']","['5', '9', '4', '7', '1']","['8', '5', '9', '4', '7', '1']","['3', '8', '5', '9', '4', '7', '1']","['6', '3', '8', '5', '9', '4', '7', '1']","['2', '6', '3', '8', '5', '9', '4', '7', '1']",None,None,None,None,None,None,None,,,,,,,,,0,6,6,6,,3846471,,,,,,,,,,,0,,7,"['3', '8', '4', '6', '4', '7', '1']",0,"[1.9490778999170288, 2.8188686999492347, 4.589252399979159, 7.406709599890746, 7.986078099929728, 8.533542099990882, 8.691819799947552, 9.866877499967813]",,ezraquintana2,001,2022-11-03_15h16.07.771,DS_Adapt1L,2022.2.4,60.2882865621468,
8,2,6,3,7,1,4,9,5,2,0,0,0,0,0,0,"['6', '2', '8']","['3', '6', '2', '8']","['7', '3', '6', '2', '8']","['1', '7', '3', '6', '2', '8']","['4', '1', '7', '3', '6', '2', '8']","['9', '4', '1', '7', '3', '6', '2', '8']","['5', '9', '4', '1', '7', '3', '6', '2', '8']","['2', '5', '9', '4', '1', '7', '3', '6', '2', '8']",None,None,None,None,None,None,,,,,,,,,0,7,7,7,,173628,,,,,,,,,,,1,,6,"['1', '7', '3', '6', '2', '8']",0,"[2.6831059000687674, 3.4119361001066864, 5.671400099992752, 5.892638100078329, 7.598217100021429, 7.7564842000138015, 8.748006100067869]",,ezraquintana2,001,2022-11-03_15h16.07.771,DS_Adapt1L,2022.2.4,60.2882865621468,
3,8,1,9,6,2,5,8,4,7,1,0,0,0,0,0,"['1', '8', '3']","['9', '1', '8', '3']","['6', '9', '1', '8', '3']","['2', '6', '9', '1', '8', '3']","['5', '2', '6', '9', '1', '8', '3']","['8', '5', '2', '6', '9', '1', '8', '3']","['4', '8', '5', '2', '6', '9', '1', '8', '3']","['7', '4', '8', '5', '2', '6', '9', '1', '8', '3']","['1', '7', '4', '8', '5', '2', '6', '9', '1', '8', '3']",None,None,None,None,None,,,,,,,,,0,8,8,8,,5263671,,,,,,,,,,,0,,7,"['5', '2', '6', '3', '6', '7', '1']",0,"[2.9361252000089735, 3.3943929000524804, 3.7593562999973074, 8.834355700062588, 8.994317800039425, 12.15718730003573, 12.275369300041348, 13.079002600046806]",,ezraquintana2,001,2022-11-03_15h16.07.771,DS_Adapt1L,2022.2.4,60.2882865621468,
9,5,1,4,8,2,6,3,7,3,1,9,0,0,0,0,"['1', '5', '9']","['4', '1', '5', '9']","['8', '4', '1', '5', '9']","['2', '8', '4', '1', '5', '9']","['6', '2', '8', '4', '1', '5', '9']","['3', '6', '2', '8', '4', '1', '5', '9']","['7', '3', '6', '2', '8', '4', '1', '5', '9']","['3', '7', '3', '6', '2', '8', '4', '1', '5', '9']","['1', '3', '7', '3', '6', '2', '8', '4', '1', '5', '9']","['9', '1', '3', '7', '3', '6', '2', '8', '4', '1', '5', '9']",None,None,None,None,,,,,,,,,0,9,9,9,,6284159,,,,,,,,,,,1,,7,"['6', '2', '8', '4', '1', '5', '9']",0,"[1.968897300073877, 2.4061179000418633, 2.9075729000614956, 7.0704376000212505, 7.340393700054847, 8.604692900087684, 9.241707500070333, 10.051594900083728]",,ezraquintana2,001,2022-11-03_15h16.07.771,DS_Adapt1L,2022.2.4,60.2882865621468,
5,8,4,1,9,2,7,3,6,2,8,1,6,0,0,0,"['4', '8', '5']","['1', '4', '8', '5']","['9', '1', '4', '8', '5']","['2', '9', '1', '4', '8', '5']","['7', '2', '9', '1', '4', '8', '5']","['3', '7', '2', '9', '1', '4', '8', '5']","['6', '3', '7', '2', '9', '1', '4', '8', '5']","['2', '6', '3', '7', '2', '9', '1', '4', '8', '5']","['8', '2', '6', '3', '7', '2', '9', '1', '4', '8', '5']","['1', '8', '2', '6', '3', '7', '2', '9', '1', '4', '8', '5']","['6', '1', '8', '2', '6', '3', '7', '2', '9', '1', '4', '8', '5']",None,None,None,,,,,,,,,0,10,10,10,,371439,,,,,,,,,,,0,,8,"['3', '7', '1', '4', '3', '9']",0,"[1.7898199000628665, 1.9923585000215098, 8.392292800010182, 8.767893700045533, 10.02760680008214, 10.18309540010523, 11.044951000018045]",,ezraquintana2,001,2022-11-03_15h16.07.771,DS_Adapt1L,2022.2.4,60.2882865621468,
1,6,9,4,7,2,5,8,3,9,4,7,2,6,0,0,"['9', '6', '1']","['4', '9', '6', '1']","['7', '4', '9', '6', '1']","['2', '7', '4', '9', '6', '1']","['5', '2', '7', '4', '9', '6', '1']","['8', '5', '2', '7', '4', '9', '6', '1']","['3', '8', '5', '2', '7', '4', '9', '6', '1']","['9', '3', '8', '5', '2', '7', '4', '9', '6', '1']","['4', '9', '3', '8', '5', '2', '7', '4', '9', '6', '1']","['7', '4', '9', '3', '8', '5', '2', '7', '4', '9', '6', '1']","['2', '7', '4', '9', '3', '8', '5', '2', '7', '4', '9', '6', '1']","['6', '2', '7', '4', '9', '3', '8', '5', '2', '7', '4', '9', '6', '1']",None,None,,,,,,,,,0,11,11,11,,854539,,,,,,,,,,,0,,8,"['8', '5', '4', '5', '3', '9']",0,"[1.8657748999539763, 2.4206801999825984, 6.2478707999689505, 6.39734020002652, 7.469541599974036, 7.618549300008453, 8.985769900027663]",,ezraquintana2,001,2022-11-03_15h16.07.771,DS_Adapt1L,2022.2.4,60.2882865621468,
2,7,4,9,1,6,3,8,5,9,4,1,7,2,8,0,"['4', '7', '2']","['9', '4', '7', '2']","['1', '9', '4', '7', '2']","['6', '1', '9', '4', '7', '2']","['3', '6', '1', '9', '4', '7', '2']","['8', '3', '6', '1', '9', '4', '7', '2']","['5', '8', '3', '6', '1', '9', '4', '7', '2']","['9', '5', '8', '3', '6', '1', '9', '4', '7', '2']","['4', '9', '5', '8', '3', '6', '1', '9', '4', '7', '2']","['1', '4', '9', '5', '8', '3', '6', '1', '9', '4', '7', '2']","['7', '1', '4', '9', '5', '8', '3', '6', '1', '9', '4', '7', '2']","['2', '7', '1', '4', '9', '5', '8', '3', '6', '1', '9', '4', '7', '2']","['8', '2', '7', '1', '4', '9', '5', '8', '3', '6', '1', '9', '4', '7', '2']",None,,,,,,,,,0,12,12,12,,3619472,,,,,,,,,,,1,,7,"['3', '6', '1', '9', '4', '7', '2']",0,"[2.0500233999919146, 9.01626139995642, 9.558889599982649, 10.844298499985598, 14.162222299957648, 14.672313799965195, 14.781145200016908, 15.612407400039956]",,ezraquintana2,001,2022-11-03_15h16.07.771,DS_Adapt1L,2022.2.4,60.2882865621468,
7,1,4,8,2,6,3,9,5,8,5,9,1,4,7,2,"['4', '1', '7']","['8', '4', '1', '7']","['2', '8', '4', '1', '7']","['6', '2', '8', '4', '1', '7']","['3', '6', '2', '8', '4', '1', '7']","['9', '3', '6', '2', '8', '4', '1', '7']","['5', '9', '3', '6', '2', '8', '4', '1', '7']","['8', '5', '9', '3', '6', '2', '8', '4', '1', '7']","['5', '8', '5', '9', '3', '6', '2', '8', '4', '1', '7']","['9', '5', '8', '5', '9', '3', '6', '2', '8', '4', '1', '7']","['1', '9', '5', '8', '5', '9', '3', '6', '2', '8', '4', '1', '7']","['4', '1', '9', '5', '8', '5', '9', '3', '6', '2', '8', '4', '1', '7']","['7', '4', '1', '9', '5', '8', '5', '9', '3', '6', '2', '8', '4', '1', '7']","['2', '7', '4', '1', '9', '5', '8', '5', '9', '3', '6', '2', '8', '4', '1', '7']",,,,,,,,,0,13,13,13,,936215,,,,,,,,,,,0,,8,"['9', '3', '6', '2', '1', '5']",0,"[1.2765518999658525, 2.352954699890688, 3.8441228999290615, 4.844556599971838, 7.541882399935275, 7.691050499910489, 8.70553929999005]",,ezraquintana2,001,2022-11-03_15h16.07.771,DS_Adapt1L,2022.2.4,60.2882865621468,
,,,,,,,,,,,,,,,,,,,,,,,,,,,,,,,,,,,,,,,,,,,,,,,,,,,,,,,,,,,,6.566666666666667,,,,,,,
