S1,S2,S3,S4,S5,S6,S7,S8,S9,S10,S11,S12,S13,S14,S15,S16,CorrAns3,CorrAns4,CorrAns5,CorrAns6,CorrAns7,CorrAns8,CorrAns9,CorrAns10,CorrAns11,CorrAns12,CorrAns13,CorrAns14,CorrAns15,CorrAns16,trials_2.thisRepN,trials_2.thisTrialN,trials_2.thisN,trials_2.thisIndex,trials.thisRepN,trials.thisTrialN,trials.thisN,trials.thisIndex,trials_3.thisRepN,trials_3.thisTrialN,trials_3.thisN,trials_3.thisIndex,Seq4_tr.started,recall_resp,key_resp_4.keys,key_resp_4.corr,key_resp_4.rt,Seq4_tr.stopped,text_go.started,key_resp_5.started,DS,key_resp2_2.keys,key_resp2_2.corr,key_resp2_2.rt,score,Forward WM score,B_DS,key_resp2_2B.keys,key_resp2_2B.corr,key_resp2_2B.rt,Backward WM score,participant,session,date,expName,psychopyVersion,frameRate,
8,1,6,0,0,0,0,0,0,0,0,0,0,0,0,0,"['8', '1', '6']",None,None,None,None,None,None,None,None,None,None,None,None,None,,,,,0,0,0,0,,,,,25.56084433400065,816,"['1', '2', '3', '4']",0,"[0.8386033740007406, 1.034953916001541, 1.2400957070003642, 1.433996082001613, 1.89974866600096]",26.56055058400125,28.960673584000688,28.960673584000688,3,"['8', '1', '6']",0,"[0.9656607069991878, 1.2880076239998743, 1.3927327490000607, 1.8493170410001767]",1,,,,,,,monica2.2,001,2022-11-03_17h09.04.481,DS_Adapt1L,2022.2.4,59.94443175159317,
4,7,2,9,0,0,0,0,0,0,0,0,0,0,0,0,"['4', '7', '2']","['4', '7', '2', '9']",None,None,None,None,None,None,None,None,None,None,None,None,,,,,0,1,1,1,,,,,,4729,,,,,,,4,"['4', '7', '2', '9']",0,"[0.5427253750003729, 1.025328540999908, 1.2168314160007867, 1.3364790830000857, 1.6828209579998656]",1,,,,,,,monica2.2,001,2022-11-03_17h09.04.481,DS_Adapt1L,2022.2.4,59.94443175159317,
6,9,1,7,2,0,0,0,0,0,0,0,0,0,0,0,"['6', '9', '1']","['6', '9', '1', '7']","['6', '9', '1', '7', '2']",None,None,None,None,None,None,None,None,None,None,None,,,,,0,2,2,2,,,,,,69182,,,,,,,5,"['6', '9', '1', '8', '2']",0,"[0.4679421660002845, 0.7837266660008027, 1.3661808739998378, 1.9896408740005427, 2.536592374000975, 3.275480874001005]",0,,,,,,,monica2.2,001,2022-11-03_17h09.04.481,DS_Adapt1L,2022.2.4,59.94443175159317,
7,9,4,1,8,2,0,0,0,0,0,0,0,0,0,0,"['7', '9', '4']","['7', '9', '4', '1']","['7', '9', '4', '1', '8']","['7', '9', '4', '1', '8', '2']",None,None,None,None,None,None,None,None,None,None,,,,,0,3,3,3,,,,,,79418,,,,,,,5,"['7', '9', '4', '1', '8']",0,"[0.4546065410013398, 1.210870666000119, 1.895512332999715, 2.052614915999584, 2.302569374000086, 2.6255099160007376]",1,,,,,,,monica2.2,001,2022-11-03_17h09.04.481,DS_Adapt1L,2022.2.4,59.94443175159317,
5,2,8,4,7,3,9,0,0,0,0,0,0,0,0,0,"['5', '2', '8']","['5', '2', '8', '4']","['5', '2', '8', '4', '7']","['5', '2', '8', '4', '7', '3']","['5', '2', '8', '4', '7', '3', '9']",None,None,None,None,None,None,None,None,None,,,,,0,4,4,4,,,,,,528473,,,,,,,6,"['5', '2', '8', '4', '7', '3']",0,"[0.45462420800140535, 2.079408499999772, 2.822382666001431, 3.2391057500008174, 3.6573850410004525, 4.006550750000315, 4.567380791000687]",1,,,,,,,monica2.2,001,2022-11-03_17h09.04.481,DS_Adapt1L,2022.2.4,59.94443175159317,
2,5,1,7,4,9,3,8,0,0,0,0,0,0,0,0,"['2', '5', '1']","['2', '5', '1', '7']","['2', '5', '1', '7', '4']","['2', '5', '1', '7', '4', '9']","['2', '5', '1', '7', '4', '9', '3']","['2', '5', '1', '7', '4', '9', '3', '8']",None,None,None,None,None,None,None,None,,,,,0,5,5,5,,,,,,2517493,,,,,,,7,"['2', '5', '1', '7', '4', '9', '3']",0,"[1.3993511659991782, 2.4121266239999386, 2.8493844569984503, 3.5053219989986246, 3.901754456999697, 4.413630081999145, 4.820793331999084, 5.524615248999908]",1,,,,,,,monica2.2,001,2022-11-03_17h09.04.481,DS_Adapt1L,2022.2.4,59.94443175159317,
6,2,5,8,3,9,4,1,7,0,0,0,0,0,0,0,"['6', '2', '5']","['6', '2', '5', '8']","['6', '2', '5', '8', '3']","['6', '2', '5', '8', '3', '9']","['6', '2', '5', '8', '3', '9', '4']","['6', '2', '5', '8', '3', '9', '4', '1']","['6', '2', '5', '8', '3', '9', '4', '1', '7']",None,None,None,None,None,None,None,,,,,0,6,6,6,,,,,,6358941,,,,,,,8,"['6', '3', '5', '8', '9', '4', '1']",0,"[1.1126866239992523, 1.9683831660004216, 2.31336254100097, 3.0975551240007917, 3.327005499000734, 3.882605541000885, 4.198853498999597, 4.920688541000345]",0,,,,,,,monica2.2,001,2022-11-03_17h09.04.481,DS_Adapt1L,2022.2.4,59.94443175159317,
1,7,3,8,4,9,5,2,6,9,0,0,0,0,0,0,"['1', '7', '3']","['1', '7', '3', '8']","['1', '7', '3', '8', '4']","['1', '7', '3', '8', '4', '9']","['1', '7', '3', '8', '4', '9', '5']","['1', '7', '3', '8', '4', '9', '5', '2']","['1', '7', '3', '8', '4', '9', '5', '2', '6']","['1', '7', '3', '8', '4', '9', '5', '2', '6', '9']",None,None,None,None,None,None,,,,,0,7,7,7,,,,,,1794532,,,,,,,8,"['1', '7', '9', '4', '5', '3', '2']",0,"[1.3328397500008577, 2.1123354580013256, 2.363122500000827, 2.9482502080009, 3.786501500000668, 4.242180916000507, 4.526771541000926, 5.119351000001188]",0,,,,,,,monica2.2,001,2022-11-03_17h09.04.481,DS_Adapt1L,2022.2.4,59.94443175159317,
4,9,6,2,5,8,1,7,3,7,4,0,0,0,0,0,"['4', '9', '6']","['4', '9', '6', '2']","['4', '9', '6', '2', '5']","['4', '9', '6', '2', '5', '8']","['4', '9', '6', '2', '5', '8', '1']","['4', '9', '6', '2', '5', '8', '1', '7']","['4', '9', '6', '2', '5', '8', '1', '7', '3']","['4', '9', '6', '2', '5', '8', '1', '7', '3', '7']","['4', '9', '6', '2', '5', '8', '1', '7', '3', '7', '4']",None,None,None,None,None,,,,,0,8,8,8,,,,,,4962581,,,,,,,7,"['4', '9', '6', '2', '5', '8', '1']",0,"[1.6649864579994755, 2.325393332999738, 3.0277314159993693, 3.4864379159989767, 4.166929916000299, 4.966992749999918, 5.609285708000243, 6.765773249999256]",1,,,,,,,monica2.2,001,2022-11-03_17h09.04.481,DS_Adapt1L,2022.2.4,59.94443175159317,
8,4,1,7,3,6,2,5,9,1,6,3,0,0,0,0,"['8', '4', '1']","['8', '4', '1', '7']","['8', '4', '1', '7', '3']","['8', '4', '1', '7', '3', '6']","['8', '4', '1', '7', '3', '6', '2']","['8', '4', '1', '7', '3', '6', '2', '5']","['8', '4', '1', '7', '3', '6', '2', '5', '9']","['8', '4', '1', '7', '3', '6', '2', '5', '9', '1']","['8', '4', '1', '7', '3', '6', '2', '5', '9', '1', '6']","['8', '4', '1', '7', '3', '6', '2', '5', '9', '1', '6', '3']",None,None,None,None,,,,,0,9,9,9,,,,,,84187325,,,,,,,8,"['8', '4', '1', '8', '7', '3', '2', '5']",0,"[2.308191498999804, 2.7132585819999804, 3.1360304159989028, 3.654217831999631, 4.89808495699981, 5.615668999000263, 5.882959415999721, 6.4486284159993374, 6.958457581999028]",0,,,,,,,monica2.2,001,2022-11-03_17h09.04.481,DS_Adapt1L,2022.2.4,59.94443175159317,
5,9,4,1,6,9,3,8,2,6,1,8,2,0,0,0,"['5', '9', '4']","['5', '9', '4', '1']","['5', '9', '4', '1', '6']","['5', '9', '4', '1', '6', '9']","['5', '9', '4', '1', '6', '9', '3']","['5', '9', '4', '1', '6', '9', '3', '8']","['5', '9', '4', '1', '6', '9', '3', '8', '2']","['5', '9', '4', '1', '6', '9', '3', '8', '2', '6']","['5', '9', '4', '1', '6', '9', '3', '8', '2', '6', '1']","['5', '9', '4', '1', '6', '9', '3', '8', '2', '6', '1', '8']","['5', '9', '4', '1', '6', '9', '3', '8', '2', '6', '1', '8', '2']",None,None,None,,,,,0,10,10,10,,,,,,5496123,,,,,,,8,"['5', '4', '9', '6', '1', '2', '3']",0,"[1.0217897910006286, 1.3522072910000134, 1.9717189160000999, 2.7249364580002293, 3.3113579580003716, 4.604457999999795, 4.837222166001084, 5.415127166001184]",0,,,,,,,monica2.2,001,2022-11-03_17h09.04.481,DS_Adapt1L,2022.2.4,59.94443175159317,
3,7,2,5,8,4,1,9,6,3,7,1,4,8,0,0,"['3', '7', '2']","['3', '7', '2', '5']","['3', '7', '2', '5', '8']","['3', '7', '2', '5', '8', '4']","['3', '7', '2', '5', '8', '4', '1']","['3', '7', '2', '5', '8', '4', '1', '9']","['3', '7', '2', '5', '8', '4', '1', '9', '6']","['3', '7', '2', '5', '8', '4', '1', '9', '6', '3']","['3', '7', '2', '5', '8', '4', '1', '9', '6', '3', '7']","['3', '7', '2', '5', '8', '4', '1', '9', '6', '3', '7', '1']","['3', '7', '2', '5', '8', '4', '1', '9', '6', '3', '7', '1', '4']","['3', '7', '2', '5', '8', '4', '1', '9', '6', '3', '7', '1', '4', '8']",None,None,,,,,0,11,11,11,,,,,,125843,,,,,,,7,"['1', '2', '5', '8', '4', '3']",0,"[1.1061372080002911, 1.350130208000337, 1.7592116659998283, 2.2614831659993797, 2.686582874999658, 3.890204416000415, 4.48816749999969]",0,,,,,,,monica2.2,001,2022-11-03_17h09.04.481,DS_Adapt1L,2022.2.4,59.94443175159317,
9,4,8,3,7,1,5,2,6,3,9,1,6,2,7,0,"['9', '4', '8']","['9', '4', '8', '3']","['9', '4', '8', '3', '7']","['9', '4', '8', '3', '7', '1']","['9', '4', '8', '3', '7', '1', '5']","['9', '4', '8', '3', '7', '1', '5', '2']","['9', '4', '8', '3', '7', '1', '5', '2', '6']","['9', '4', '8', '3', '7', '1', '5', '2', '6', '3']","['9', '4', '8', '3', '7', '1', '5', '2', '6', '3', '9']","['9', '4', '8', '3', '7', '1', '5', '2', '6', '3', '9', '1']","['9', '4', '8', '3', '7', '1', '5', '2', '6', '3', '9', '1', '6']","['9', '4', '8', '3', '7', '1', '5', '2', '6', '3', '9', '1', '6', '2']","['9', '4', '8', '3', '7', '1', '5', '2', '6', '3', '9', '1', '6', '2', '7']",None,,,,,0,12,12,12,,,,,,9473815,,,,,,,7,"['9', '4', '7', '3', '8', '1', '5']",0,"[1.1203387910009042, 1.5457764990005671, 2.2148254580006324, 2.6886769579996326, 3.300728041000184, 3.7738340409996454, 4.176648208000188, 4.815612291000434]",0,,,,,,,monica2.2,001,2022-11-03_17h09.04.481,DS_Adapt1L,2022.2.4,59.94443175159317,
1,5,9,4,7,3,8,2,6,2,7,3,6,1,5,8,"['1', '5', '9']","['1', '5', '9', '4']","['1', '5', '9', '4', '7']","['1', '5', '9', '4', '7', '3']","['1', '5', '9', '4', '7', '3', '8']","['1', '5', '9', '4', '7', '3', '8', '2']","['1', '5', '9', '4', '7', '3', '8', '2', '6']","['1', '5', '9', '4', '7', '3', '8', '2', '6', '2']","['1', '5', '9', '4', '7', '3', '8', '2', '6', '2', '7']","['1', '5', '9', '4', '7', '3', '8', '2', '6', '2', '7', '3']","['1', '5', '9', '4', '7', '3', '8', '2', '6', '2', '7', '3', '6']","['1', '5', '9', '4', '7', '3', '8', '2', '6', '2', '7', '3', '6', '1']","['1', '5', '9', '4', '7', '3', '8', '2', '6', '2', '7', '3', '6', '1', '5']","['1', '5', '9', '4', '7', '3', '8', '2', '6', '2', '7', '3', '6', '1', '5', '8']",,,,,0,13,13,13,,,,,,159473,,,,,,,6,"['1', '5', '9', '4', '7', '3']",0,"[1.1378951240003516, 1.9217880830001377, 2.776649958001144, 3.433745791000547, 4.092547166001168, 4.477504041000429, 5.0092664580006385]",1,,,,,,,monica2.2,001,2022-11-03_17h09.04.481,DS_Adapt1L,2022.2.4,59.94443175159317,
None,None,None,None,None,None,None,None,None,None,None,None,None,None,None,None,None,None,None,None,None,None,None,None,None,None,None,None,None,None,,,,,0,14,14,14,,,,,,1594738,,,,,,,7,"['1', '5', '9', '4', '7', '3', '8']",0,"[0.9448556659990572, 1.5787962079994031, 2.254953415998898, 3.16473274999953, 3.5275610409989895, 3.976563582999006, 4.3698580830005085, 4.896010082999055]",0,,,,,,,monica2.2,001,2022-11-03_17h09.04.481,DS_Adapt1L,2022.2.4,59.94443175159317,
1,5,9,0,0,0,0,0,0,0,0,0,0,0,0,0,"['9', '5', '1']",None,None,None,None,None,None,None,None,None,None,None,None,None,,,,,,,,,0,0,0,0,,951,,,,,,,,,,,1,6.4,3,"['9', '5', '1']",0,"[0.7256178740008181, 1.1643131239998183, 1.532661373999872, 2.090645083000709]",,monica2.2,001,2022-11-03_17h09.04.481,DS_Adapt1L,2022.2.4,59.94443175159317,
4,7,3,8,0,0,0,0,0,0,0,0,0,0,0,0,"['3', '7', '4']","['8', '3', '7', '4']",None,None,None,None,None,None,None,None,None,None,None,None,,,,,,,,,0,1,1,1,,8374,,,,,,,,,,,1,,4,"['8', '3', '7', '4']",0,"[0.7517860000007204, 1.6240626660000999, 2.027743458000259, 2.3995117909998953, 2.9188769160009542]",,monica2.2,001,2022-11-03_17h09.04.481,DS_Adapt1L,2022.2.4,59.94443175159317,
2,6,1,7,3,0,0,0,0,0,0,0,0,0,0,0,"['1', '6', '2']","['7', '1', '6', '2']","['3', '7', '1', '6', '2']",None,None,None,None,None,None,None,None,None,None,None,,,,,,,,,0,2,2,2,,37162,,,,,,,,,,,1,,5,"['3', '7', '1', '6', '2']",0,"[2.2492405409993808, 2.8108754990007583, 3.304429040999821, 3.9968087910001486, 4.332978832999288, 4.932463082999675]",,monica2.2,001,2022-11-03_17h09.04.481,DS_Adapt1L,2022.2.4,59.94443175159317,
6,1,5,9,4,8,0,0,0,0,0,0,0,0,0,0,"['5', '1', '6']","['9', '5', '1', '6']","['4', '9', '5', '1', '6']","['8', '4', '9', '5', '1', '6']",None,None,None,None,None,None,None,None,None,None,,,,,,,,,0,3,3,3,,84519,,,,,,,,,,,0,,6,"['8', '4', '5', '1', '9']",0,"[0.7688777500006836, 1.4121767500000715, 3.3802382909998414, 4.186666499999774, 4.941169375000754, 5.335599375001038]",,monica2.2,001,2022-11-03_17h09.04.481,DS_Adapt1L,2022.2.4,59.94443175159317,
3,7,1,5,2,6,9,0,0,0,0,0,0,0,0,0,"['1', '7', '3']","['5', '1', '7', '3']","['2', '5', '1', '7', '3']","['6', '2', '5', '1', '7', '3']","['9', '6', '2', '5', '1', '7', '3']",None,None,None,None,None,None,None,None,None,,,,,,,,,0,4,4,4,,265173,,,,,,,,,,,0,,6,"['2', '6', '5', '1', '7', '3']",0,"[3.372470541000439, 3.927878165999573, 5.95377550000012, 6.451375624999855, 7.398540207999758, 7.760408207999717, 8.645560999999361]",,monica2.2,001,2022-11-03_17h09.04.481,DS_Adapt1L,2022.2.4,59.94443175159317,
9,3,6,2,5,8,4,1,0,0,0,0,0,0,0,0,"['6', '3', '9']","['2', '6', '3', '9']","['5', '2', '6', '3', '9']","['8', '5', '2', '6', '3', '9']","['4', '8', '5', '2', '6', '3', '9']","['1', '4', '8', '5', '2', '6', '3', '9']",None,None,None,None,None,None,None,None,,,,,,,,,0,5,5,5,,54925,,,,,,,,,,,0,,5,"['5', '4', '9', '2', '5']",0,"[2.9126874580015283, 4.1647639160000836, 6.274109208001391, 7.417989458001102, 7.903831416000685, 8.79188350000004]",,monica2.2,001,2022-11-03_17h09.04.481,DS_Adapt1L,2022.2.4,59.94443175159317,
1,7,4,9,5,8,3,6,2,0,0,0,0,0,0,0,"['4', '7', '1']","['9', '4', '7', '1']","['5', '9', '4', '7', '1']","['8', '5', '9', '4', '7', '1']","['3', '8', '5', '9', '4', '7', '1']","['6', '3', '8', '5', '9', '4', '7', '1']","['2', '6', '3', '8', '5', '9', '4', '7', '1']",None,None,None,None,None,None,None,,,,,,,,,0,6,6,6,,59471,,,,,,,,,,,1,,5,"['5', '9', '4', '7', '1']",0,"[1.5275004989998706, 2.100792832001389, 2.8124049160014692, 3.418685541000741, 3.8229666240004008, 4.4422526660000585]",,monica2.2,001,2022-11-03_17h09.04.481,DS_Adapt1L,2022.2.4,59.94443175159317,
8,2,6,3,7,1,4,9,5,2,0,0,0,0,0,0,"['6', '2', '8']","['3', '6', '2', '8']","['7', '3', '6', '2', '8']","['1', '7', '3', '6', '2', '8']","['4', '1', '7', '3', '6', '2', '8']","['9', '4', '1', '7', '3', '6', '2', '8']","['5', '9', '4', '1', '7', '3', '6', '2', '8']","['2', '5', '9', '4', '1', '7', '3', '6', '2', '8']",None,None,None,None,None,None,,,,,,,,,0,7,7,7,,172836,,,,,,,,,,,0,,6,"['1', '7', '2', '8', '3', '6']",0,"[3.183086248998734, 5.735845457000323, 7.041547456999979, 7.76359758199942, 9.242533706999893, 9.59899162399961, 12.335755956999492]",,monica2.2,001,2022-11-03_17h09.04.481,DS_Adapt1L,2022.2.4,59.94443175159317,
3,8,1,9,6,2,5,8,4,7,1,0,0,0,0,0,"['1', '8', '3']","['9', '1', '8', '3']","['6', '9', '1', '8', '3']","['2', '6', '9', '1', '8', '3']","['5', '2', '6', '9', '1', '8', '3']","['8', '5', '2', '6', '9', '1', '8', '3']","['4', '8', '5', '2', '6', '9', '1', '8', '3']","['7', '4', '8', '5', '2', '6', '9', '1', '8', '3']","['1', '7', '4', '8', '5', '2', '6', '9', '1', '8', '3']",None,None,None,None,None,,,,,,,,,0,8,8,8,,29183,,,,,,,,,,,0,,6,"['2', '9', '1', '8', '3']",0,"[1.1965011240008607, 1.8489254579999397, 2.4488047909999295, 6.849405790999299, 7.234329208000418, 7.790380623999226]",,monica2.2,001,2022-11-03_17h09.04.481,DS_Adapt1L,2022.2.4,59.94443175159317,
9,5,1,4,8,2,6,3,7,3,1,9,0,0,0,0,"['1', '5', '9']","['4', '1', '5', '9']","['8', '4', '1', '5', '9']","['2', '8', '4', '1', '5', '9']","['6', '2', '8', '4', '1', '5', '9']","['3', '6', '2', '8', '4', '1', '5', '9']","['7', '3', '6', '2', '8', '4', '1', '5', '9']","['3', '7', '3', '6', '2', '8', '4', '1', '5', '9']","['1', '3', '7', '3', '6', '2', '8', '4', '1', '5', '9']","['9', '1', '3', '7', '3', '6', '2', '8', '4', '1', '5', '9']",None,None,None,None,,,,,,,,,0,9,9,9,,84159,,,,,,,,,,,1,,5,"['8', '4', '1', '5', '9']",0,"[1.2631346250000206, 3.249492165999982, 3.6006035000009433, 4.420625582999492, 4.8409567500002595, 5.4237520410006255]",,monica2.2,001,2022-11-03_17h09.04.481,DS_Adapt1L,2022.2.4,59.94443175159317,
5,8,4,1,9,2,7,3,6,2,8,1,6,0,0,0,"['4', '8', '5']","['1', '4', '8', '5']","['9', '1', '4', '8', '5']","['2', '9', '1', '4', '8', '5']","['7', '2', '9', '1', '4', '8', '5']","['3', '7', '2', '9', '1', '4', '8', '5']","['6', '3', '7', '2', '9', '1', '4', '8', '5']","['2', '6', '3', '7', '2', '9', '1', '4', '8', '5']","['8', '2', '6', '3', '7', '2', '9', '1', '4', '8', '5']","['1', '8', '2', '6', '3', '7', '2', '9', '1', '4', '8', '5']","['6', '1', '8', '2', '6', '3', '7', '2', '9', '1', '4', '8', '5']",None,None,None,,,,,,,,,0,10,10,10,,291485,,,,,,,,,,,1,,6,"['2', '9', '1', '4', '8', '5']",0,"[0.9558606240007066, 1.5988420829999086, 2.580057040999236, 3.1625268740008323, 4.643489041000066, 6.655842124000628, 7.910029123999266]",,monica2.2,001,2022-11-03_17h09.04.481,DS_Adapt1L,2022.2.4,59.94443175159317,
1,6,9,4,7,2,5,8,3,9,4,7,2,6,0,0,"['9', '6', '1']","['4', '9', '6', '1']","['7', '4', '9', '6', '1']","['2', '7', '4', '9', '6', '1']","['5', '2', '7', '4', '9', '6', '1']","['8', '5', '2', '7', '4', '9', '6', '1']","['3', '8', '5', '2', '7', '4', '9', '6', '1']","['9', '3', '8', '5', '2', '7', '4', '9', '6', '1']","['4', '9', '3', '8', '5', '2', '7', '4', '9', '6', '1']","['7', '4', '9', '3', '8', '5', '2', '7', '4', '9', '6', '1']","['2', '7', '4', '9', '3', '8', '5', '2', '7', '4', '9', '6', '1']","['6', '2', '7', '4', '9', '3', '8', '5', '2', '7', '4', '9', '6', '1']",None,None,,,,,,,,,0,11,11,11,,56174,,,,,,,,,,,0,,7,"['5', '6', '1', '7', '4']",0,"[0.5516293319997203, 2.3446638740006165, 2.9227908739994746, 6.373199831999955, 6.6974864570001955, 7.198967124000774]",,monica2.2,001,2022-11-03_17h09.04.481,DS_Adapt1L,2022.2.4,59.94443175159317,
2,7,4,9,1,6,3,8,5,9,4,1,7,2,8,0,"['4', '7', '2']","['9', '4', '7', '2']","['1', '9', '4', '7', '2']","['6', '1', '9', '4', '7', '2']","['3', '6', '1', '9', '4', '7', '2']","['8', '3', '6', '1', '9', '4', '7', '2']","['5', '8', '3', '6', '1', '9', '4', '7', '2']","['9', '5', '8', '3', '6', '1', '9', '4', '7', '2']","['4', '9', '5', '8', '3', '6', '1', '9', '4', '7', '2']","['1', '4', '9', '5', '8', '3', '6', '1', '9', '4', '7', '2']","['7', '1', '4', '9', '5', '8', '3', '6', '1', '9', '4', '7', '2']","['2', '7', '1', '4', '9', '5', '8', '3', '6', '1', '9', '4', '7', '2']","['8', '2', '7', '1', '4', '9', '5', '8', '3', '6', '1', '9', '4', '7', '2']",None,,,,,,,,,0,12,12,12,,3619417,,,,,,,,,,,0,,7,"['3', '6', '1', '9', '4', '1', '7']",0,"[1.0343374160001986, 5.844805999000528, 6.556891332000305, 13.437821998999425, 13.785070040999926, 14.126559582000482, 14.601980915998865, 15.08692016599889]",,monica2.2,001,2022-11-03_17h09.04.481,DS_Adapt1L,2022.2.4,59.94443175159317,
7,1,4,8,2,6,3,9,5,8,5,9,1,4,7,2,"['4', '1', '7']","['8', '4', '1', '7']","['2', '8', '4', '1', '7']","['6', '2', '8', '4', '1', '7']","['3', '6', '2', '8', '4', '1', '7']","['9', '3', '6', '2', '8', '4', '1', '7']","['5', '9', '3', '6', '2', '8', '4', '1', '7']","['8', '5', '9', '3', '6', '2', '8', '4', '1', '7']","['5', '8', '5', '9', '3', '6', '2', '8', '4', '1', '7']","['9', '5', '8', '5', '9', '3', '6', '2', '8', '4', '1', '7']","['1', '9', '5', '8', '5', '9', '3', '6', '2', '8', '4', '1', '7']","['4', '1', '9', '5', '8', '5', '9', '3', '6', '2', '8', '4', '1', '7']","['7', '4', '1', '9', '5', '8', '5', '9', '3', '6', '2', '8', '4', '1', '7']","['2', '7', '4', '1', '9', '5', '8', '5', '9', '3', '6', '2', '8', '4', '1', '7']",,,,,,,,,0,13,13,13,,61471,,,,,,,,,,,0,,6,"['6', '1', '4', '7', '1']",0,"[1.5538864160007506, 3.990423916000509, 6.621489707000364, 8.33168458200089, 8.698718748999454, 11.126958457]",,monica2.2,001,2022-11-03_17h09.04.481,DS_Adapt1L,2022.2.4,59.94443175159317,
,,,,,,,,,,,,,,,,,,,,,,,,,,,,,,,,,,,,,,,,,,,,,,,,,,,,,,,,,,,,4.750000000000001,,,,,,,
