S1,S2,S3,S4,S5,S6,S7,S8,S9,S10,S11,S12,S13,S14,S15,S16,CorrAns3,CorrAns4,CorrAns5,CorrAns6,CorrAns7,CorrAns8,CorrAns9,CorrAns10,CorrAns11,CorrAns12,CorrAns13,CorrAns14,CorrAns15,CorrAns16,trials_2.thisRepN,trials_2.thisTrialN,trials_2.thisN,trials_2.thisIndex,trials.thisRepN,trials.thisTrialN,trials.thisN,trials.thisIndex,trials_3.thisRepN,trials_3.thisTrialN,trials_3.thisN,trials_3.thisIndex,Seq4_tr.started,recall_resp,key_resp_4.keys,key_resp_4.corr,key_resp_4.rt,Seq4_tr.stopped,text_go.started,key_resp_5.started,DS,key_resp2_2.keys,key_resp2_2.corr,key_resp2_2.rt,score,Forward WM score,B_DS,key_resp2_2B.keys,key_resp2_2B.corr,key_resp2_2B.rt,Backward WM score,participant,session,date,expName,psychopyVersion,frameRate,
8,1,6,0,0,0,0,0,0,0,0,0,0,0,0,0,"['8', '1', '6']",None,None,None,None,None,None,None,None,None,None,None,None,None,,,,,0,0,0,0,,,,,40.194255834001524,816,"['1', '2', '3', '4']",0,"[0.37725475000115694, 0.7315222079996602, 1.060406749998947, 1.339647042001161, 1.9071139580009913]",41.19437458399989,43.6282427920014,43.6282427920014,3,"['8', '1', '6']",0,"[1.6907441659968754, 2.2294744579994585, 2.4375124990001495, 3.701499873997818]",1,,,,,,,Hiram2,001,2022-11-04_15h33.20.336,DS_Adapt1L,2022.2.4,60.43205876146691,
4,7,2,9,0,0,0,0,0,0,0,0,0,0,0,0,"['4', '7', '2']","['4', '7', '2', '9']",None,None,None,None,None,None,None,None,None,None,None,None,,,,,0,1,1,1,,,,,,4729,,,,,,,4,"['4', '7', '2', '9']",0,"[2.4992553329975635, 2.786546791998262, 3.3007355419977102, 3.485605874997418, 4.279269041999214]",1,,,,,,,Hiram2,001,2022-11-04_15h33.20.336,DS_Adapt1L,2022.2.4,60.43205876146691,
6,9,1,7,2,0,0,0,0,0,0,0,0,0,0,0,"['6', '9', '1']","['6', '9', '1', '7']","['6', '9', '1', '7', '2']",None,None,None,None,None,None,None,None,None,None,None,,,,,0,2,2,2,,,,,,69172,,,,,,,5,"['6', '9', '1', '7', '2']",0,"[1.1010619999979099, 1.4006428329994378, 2.0061277909990167, 2.2684803749980347, 2.4691615409974474, 3.875080124998931]",1,,,,,,,Hiram2,001,2022-11-04_15h33.20.336,DS_Adapt1L,2022.2.4,60.43205876146691,
7,9,4,1,8,2,0,0,0,0,0,0,0,0,0,0,"['7', '9', '4']","['7', '9', '4', '1']","['7', '9', '4', '1', '8']","['7', '9', '4', '1', '8', '2']",None,None,None,None,None,None,None,None,None,None,,,,,0,3,3,3,,,,,,794182,,,,,,,6,"['7', '9', '4', '1', '8', '2']",0,"[1.5110204579978017, 1.754013791000034, 2.3369194579972827, 2.581103249998705, 3.176104040998325, 3.282618833000015, 4.705166290998022]",1,,,,,,,Hiram2,001,2022-11-04_15h33.20.336,DS_Adapt1L,2022.2.4,60.43205876146691,
5,2,8,4,7,3,9,0,0,0,0,0,0,0,0,0,"['5', '2', '8']","['5', '2', '8', '4']","['5', '2', '8', '4', '7']","['5', '2', '8', '4', '7', '3']","['5', '2', '8', '4', '7', '3', '9']",None,None,None,None,None,None,None,None,None,,,,,0,4,4,4,,,,,,5284729,,,,,,,7,"['5', '2', '8', '4', '7', '2', '9']",0,"[2.4657029999980296, 2.966462083000806, 3.36794799999916, 4.408482332997664, 4.6842357919995266, 4.876411082997947, 5.20289133299957, 9.065553332999116]",0,,,,,,,Hiram2,001,2022-11-04_15h33.20.336,DS_Adapt1L,2022.2.4,60.43205876146691,
2,5,1,7,4,9,3,8,0,0,0,0,0,0,0,0,"['2', '5', '1']","['2', '5', '1', '7']","['2', '5', '1', '7', '4']","['2', '5', '1', '7', '4', '9']","['2', '5', '1', '7', '4', '9', '3']","['2', '5', '1', '7', '4', '9', '3', '8']",None,None,None,None,None,None,None,None,,,,,0,5,5,5,,,,,,2517429,,,,,,,7,"['2', '5', '1', '7', '4', '2', '9']",0,"[3.1962989999992715, 3.4203629169969645, 3.6845544169991626, 5.958786707997206, 6.3154656249971595, 6.401097874997504, 6.691550749997987, 8.532788041997264]",0,,,,,,,Hiram2,001,2022-11-04_15h33.20.336,DS_Adapt1L,2022.2.4,60.43205876146691,
6,2,5,8,3,9,4,1,7,0,0,0,0,0,0,0,"['6', '2', '5']","['6', '2', '5', '8']","['6', '2', '5', '8', '3']","['6', '2', '5', '8', '3', '9']","['6', '2', '5', '8', '3', '9', '4']","['6', '2', '5', '8', '3', '9', '4', '1']","['6', '2', '5', '8', '3', '9', '4', '1', '7']",None,None,None,None,None,None,None,,,,,0,6,6,6,,,,,,625839,,,,,,,6,"['6', '2', '5', '8', '3', '9']",0,"[1.4715742499975022, 1.9669837080000434, 2.350399874998402, 3.4890709169994807, 3.679924416999711, 3.852446417000465, 6.139426624999032]",1,,,,,,,Hiram2,001,2022-11-04_15h33.20.336,DS_Adapt1L,2022.2.4,60.43205876146691,
1,7,3,8,4,9,5,2,6,9,0,0,0,0,0,0,"['1', '7', '3']","['1', '7', '3', '8']","['1', '7', '3', '8', '4']","['1', '7', '3', '8', '4', '9']","['1', '7', '3', '8', '4', '9', '5']","['1', '7', '3', '8', '4', '9', '5', '2']","['1', '7', '3', '8', '4', '9', '5', '2', '6']","['1', '7', '3', '8', '4', '9', '5', '2', '6', '9']",None,None,None,None,None,None,,,,,0,7,7,7,,,,,,1738495,,,,,,,7,"['1', '7', '3', '8', '4', '9', '5']",0,"[0.9211798750002345, 1.2629817919987545, 1.6064219580002828, 2.1744691249987227, 2.5197665829982725, 2.7824644579995947, 2.9928398330011987, 6.984839791999548]",1,,,,,,,Hiram2,001,2022-11-04_15h33.20.336,DS_Adapt1L,2022.2.4,60.43205876146691,
4,9,6,2,5,8,1,7,3,7,4,0,0,0,0,0,"['4', '9', '6']","['4', '9', '6', '2']","['4', '9', '6', '2', '5']","['4', '9', '6', '2', '5', '8']","['4', '9', '6', '2', '5', '8', '1']","['4', '9', '6', '2', '5', '8', '1', '7']","['4', '9', '6', '2', '5', '8', '1', '7', '3']","['4', '9', '6', '2', '5', '8', '1', '7', '3', '7']","['4', '9', '6', '2', '5', '8', '1', '7', '3', '7', '4']",None,None,None,None,None,,,,,0,8,8,8,,,,,,42617343,,,,,,,8,"['4', '2', '6', '1', '7', '3', '4', '3']",0,"[2.982057999000972, 4.0630961659990135, 4.515630207999493, 5.494996290999552, 6.068213416001527, 6.359476374000224, 6.804785748998256, 8.739202415999898, 9.053035916000226]",0,,,,,,,Hiram2,001,2022-11-04_15h33.20.336,DS_Adapt1L,2022.2.4,60.43205876146691,
8,4,1,7,3,6,2,5,9,1,6,3,0,0,0,0,"['8', '4', '1']","['8', '4', '1', '7']","['8', '4', '1', '7', '3']","['8', '4', '1', '7', '3', '6']","['8', '4', '1', '7', '3', '6', '2']","['8', '4', '1', '7', '3', '6', '2', '5']","['8', '4', '1', '7', '3', '6', '2', '5', '9']","['8', '4', '1', '7', '3', '6', '2', '5', '9', '1']","['8', '4', '1', '7', '3', '6', '2', '5', '9', '1', '6']","['8', '4', '1', '7', '3', '6', '2', '5', '9', '1', '6', '3']",None,None,None,None,,,,,0,9,9,9,,,,,,84173646,,,,,,,8,"['8', '4', '1', '7', '3', '6', '4', '6']",0,"[1.5655818329978501, 2.092383457998949, 2.221950625000318, 3.0130312500004948, 3.2916851669979224, 3.4937049170002865, 15.532420249997813, 15.913611625001067, 17.892139208001026]",0,,,,,,,Hiram2,001,2022-11-04_15h33.20.336,DS_Adapt1L,2022.2.4,60.43205876146691,
5,9,4,1,6,9,3,8,2,6,1,8,2,0,0,0,"['5', '9', '4']","['5', '9', '4', '1']","['5', '9', '4', '1', '6']","['5', '9', '4', '1', '6', '9']","['5', '9', '4', '1', '6', '9', '3']","['5', '9', '4', '1', '6', '9', '3', '8']","['5', '9', '4', '1', '6', '9', '3', '8', '2']","['5', '9', '4', '1', '6', '9', '3', '8', '2', '6']","['5', '9', '4', '1', '6', '9', '3', '8', '2', '6', '1']","['5', '9', '4', '1', '6', '9', '3', '8', '2', '6', '1', '8']","['5', '9', '4', '1', '6', '9', '3', '8', '2', '6', '1', '8', '2']",None,None,None,,,,,0,10,10,10,,,,,,594193,,,,,,,7,"['5', '9', '4', '1', '9', '3']",0,"[2.3843539160006912, 3.5034875409983215, 3.776462540998182, 4.629017749997729, 5.154253165997943, 5.2413577909974265, 6.744484457998624]",0,,,,,,,Hiram2,001,2022-11-04_15h33.20.336,DS_Adapt1L,2022.2.4,60.43205876146691,
3,7,2,5,8,4,1,9,6,3,7,1,4,8,0,0,"['3', '7', '2']","['3', '7', '2', '5']","['3', '7', '2', '5', '8']","['3', '7', '2', '5', '8', '4']","['3', '7', '2', '5', '8', '4', '1']","['3', '7', '2', '5', '8', '4', '1', '9']","['3', '7', '2', '5', '8', '4', '1', '9', '6']","['3', '7', '2', '5', '8', '4', '1', '9', '6', '3']","['3', '7', '2', '5', '8', '4', '1', '9', '6', '3', '7']","['3', '7', '2', '5', '8', '4', '1', '9', '6', '3', '7', '1']","['3', '7', '2', '5', '8', '4', '1', '9', '6', '3', '7', '1', '4']","['3', '7', '2', '5', '8', '4', '1', '9', '6', '3', '7', '1', '4', '8']",None,None,,,,,0,11,11,11,,,,,,3728451,,,,,,,7,"['3', '7', '2', '8', '4', '5', '1']",0,"[3.165260292000312, 3.47918883300008, 3.665247166998597, 5.992695124998136, 6.548636291998264, 6.69883929199932, 6.849098332997528, 11.91602708299979]",0,,,,,,,Hiram2,001,2022-11-04_15h33.20.336,DS_Adapt1L,2022.2.4,60.43205876146691,
9,4,8,3,7,1,5,2,6,3,9,1,6,2,7,0,"['9', '4', '8']","['9', '4', '8', '3']","['9', '4', '8', '3', '7']","['9', '4', '8', '3', '7', '1']","['9', '4', '8', '3', '7', '1', '5']","['9', '4', '8', '3', '7', '1', '5', '2']","['9', '4', '8', '3', '7', '1', '5', '2', '6']","['9', '4', '8', '3', '7', '1', '5', '2', '6', '3']","['9', '4', '8', '3', '7', '1', '5', '2', '6', '3', '9']","['9', '4', '8', '3', '7', '1', '5', '2', '6', '3', '9', '1']","['9', '4', '8', '3', '7', '1', '5', '2', '6', '3', '9', '1', '6']","['9', '4', '8', '3', '7', '1', '5', '2', '6', '3', '9', '1', '6', '2']","['9', '4', '8', '3', '7', '1', '5', '2', '6', '3', '9', '1', '6', '2', '7']",None,,,,,0,12,12,12,,,,,,94873,,,,,,,6,"['9', '4', '8', '7', '3']",0,"[2.042510832998232, 5.126736957998219, 5.314960207997501, 5.650425666997762, 5.84376729199721, 8.115163374997792]",0,,,,,,,Hiram2,001,2022-11-04_15h33.20.336,DS_Adapt1L,2022.2.4,60.43205876146691,
1,5,9,4,7,3,8,2,6,2,7,3,6,1,5,8,"['1', '5', '9']","['1', '5', '9', '4']","['1', '5', '9', '4', '7']","['1', '5', '9', '4', '7', '3']","['1', '5', '9', '4', '7', '3', '8']","['1', '5', '9', '4', '7', '3', '8', '2']","['1', '5', '9', '4', '7', '3', '8', '2', '6']","['1', '5', '9', '4', '7', '3', '8', '2', '6', '2']","['1', '5', '9', '4', '7', '3', '8', '2', '6', '2', '7']","['1', '5', '9', '4', '7', '3', '8', '2', '6', '2', '7', '3']","['1', '5', '9', '4', '7', '3', '8', '2', '6', '2', '7', '3', '6']","['1', '5', '9', '4', '7', '3', '8', '2', '6', '2', '7', '3', '6', '1']","['1', '5', '9', '4', '7', '3', '8', '2', '6', '2', '7', '3', '6', '1', '5']","['1', '5', '9', '4', '7', '3', '8', '2', '6', '2', '7', '3', '6', '1', '5', '8']",,,,,0,13,13,13,,,,,,159374,,,,,,,6,"['1', '5', '9', '3', '7', '4']",0,"[1.6094237910001539, 2.001199957998324, 2.6706378329981817, 3.717510291000508, 5.200297332998161, 5.74498520799898, 6.4449974989984185]",0,,,,,,,Hiram2,001,2022-11-04_15h33.20.336,DS_Adapt1L,2022.2.4,60.43205876146691,
None,None,None,None,None,None,None,None,None,None,None,None,None,None,None,None,None,None,None,None,None,None,None,None,None,None,None,None,None,None,,,,,0,14,14,14,,,,,,15947,,,,,,,5,"['1', '5', '9', '4', '7']",0,"[1.7980739580016234, 2.1920182909998402, 3.1488659160022507, 3.5431484159998945, 3.960224875001586, 6.811070208001183]",0,,,,,,,Hiram2,001,2022-11-04_15h33.20.336,DS_Adapt1L,2022.2.4,60.43205876146691,
1,5,9,0,0,0,0,0,0,0,0,0,0,0,0,0,"['9', '5', '1']",None,None,None,None,None,None,None,None,None,None,None,None,None,,,,,,,,,0,0,0,0,,951,,,,,,,,,,,1,5.7,3,"['9', '5', '1']",0,"[1.0062464580005326, 1.2505167909985175, 1.7119916250012466, 2.111881707998691]",,Hiram2,001,2022-11-04_15h33.20.336,DS_Adapt1L,2022.2.4,60.43205876146691,
4,7,3,8,0,0,0,0,0,0,0,0,0,0,0,0,"['3', '7', '4']","['8', '3', '7', '4']",None,None,None,None,None,None,None,None,None,None,None,None,,,,,,,,,0,1,1,1,,8374,,,,,,,,,,,1,,4,"['8', '3', '7', '4']",0,"[2.606192582999938, 2.9149150420016667, 3.328064582998195, 3.470210916999349, 4.383528166999895]",,Hiram2,001,2022-11-04_15h33.20.336,DS_Adapt1L,2022.2.4,60.43205876146691,
2,6,1,7,3,0,0,0,0,0,0,0,0,0,0,0,"['1', '6', '2']","['7', '1', '6', '2']","['3', '7', '1', '6', '2']",None,None,None,None,None,None,None,None,None,None,None,,,,,,,,,0,2,2,2,,37162,,,,,,,,,,,1,,5,"['3', '7', '1', '6', '2']",0,"[9.125070416997914, 9.499887624999246, 10.183475041998463, 10.905809749998298, 11.066813292000006, 13.753337832997204]",,Hiram2,001,2022-11-04_15h33.20.336,DS_Adapt1L,2022.2.4,60.43205876146691,
6,1,5,9,4,8,0,0,0,0,0,0,0,0,0,0,"['5', '1', '6']","['9', '5', '1', '6']","['4', '9', '5', '1', '6']","['8', '4', '9', '5', '1', '6']",None,None,None,None,None,None,None,None,None,None,,,,,,,,,0,3,3,3,,849516,,,,,,,,,,,1,,6,"['8', '4', '9', '5', '1', '6']",0,"[9.729712873999233, 9.865433332997782, 11.749500748999708, 11.877025290999882, 12.983822498998052, 13.098697082998115, 15.286818541000684]",,Hiram2,001,2022-11-04_15h33.20.336,DS_Adapt1L,2022.2.4,60.43205876146691,
3,7,1,5,2,6,9,0,0,0,0,0,0,0,0,0,"['1', '7', '3']","['5', '1', '7', '3']","['2', '5', '1', '7', '3']","['6', '2', '5', '1', '7', '3']","['9', '6', '2', '5', '1', '7', '3']",None,None,None,None,None,None,None,None,None,,,,,,,,,0,4,4,4,,9276351,,,,,,,,,,,0,,7,"['9', '2', '7', '6', '3', '5', '1']",0,"[11.100635249000334, 16.69029541599957, 17.032352333000745, 24.12755524900058, 24.299261249001574, 25.03333604100044, 25.142129040999862, 28.031768124001246]",,Hiram2,001,2022-11-04_15h33.20.336,DS_Adapt1L,2022.2.4,60.43205876146691,
9,3,6,2,5,8,4,1,0,0,0,0,0,0,0,0,"['6', '3', '9']","['2', '6', '3', '9']","['5', '2', '6', '3', '9']","['8', '5', '2', '6', '3', '9']","['4', '8', '5', '2', '6', '3', '9']","['1', '4', '8', '5', '2', '6', '3', '9']",None,None,None,None,None,None,None,None,,,,,,,,,0,5,5,5,,123445,,,,,,,,,,,0,,7,"['1', '2', '3', '4', '4', '5']",0,"[1.9767542909976328, 2.054497082997841, 2.6461372909980128, 3.2039074579988664, 3.5205474579997826, 4.064597958000377, 4.733383208000305]",,Hiram2,001,2022-11-04_15h33.20.336,DS_Adapt1L,2022.2.4,60.43205876146691,
1,7,4,9,5,8,3,6,2,0,0,0,0,0,0,0,"['4', '7', '1']","['9', '4', '7', '1']","['5', '9', '4', '7', '1']","['8', '5', '9', '4', '7', '1']","['3', '8', '5', '9', '4', '7', '1']","['6', '3', '8', '5', '9', '4', '7', '1']","['2', '6', '3', '8', '5', '9', '4', '7', '1']",None,None,None,None,None,None,None,,,,,,,,,0,6,6,6,,589471,,,,,,,,,,,0,,6,"['5', '8', '9', '4', '7', '1']",0,"[10.267135124999186, 10.505626165999274, 12.536521875001199, 12.720190500000172, 14.01614254100059, 14.376488458001404, 16.575301625001885]",,Hiram2,001,2022-11-04_15h33.20.336,DS_Adapt1L,2022.2.4,60.43205876146691,
8,2,6,3,7,1,4,9,5,2,0,0,0,0,0,0,"['6', '2', '8']","['3', '6', '2', '8']","['7', '3', '6', '2', '8']","['1', '7', '3', '6', '2', '8']","['4', '1', '7', '3', '6', '2', '8']","['9', '4', '1', '7', '3', '6', '2', '8']","['5', '9', '4', '1', '7', '3', '6', '2', '8']","['2', '5', '9', '4', '1', '7', '3', '6', '2', '8']",None,None,None,None,None,None,,,,,,,,,0,7,7,7,,173682,,,,,,,,,,,0,,6,"['1', '7', '3', '6', '8', '2']",0,"[2.598331748999044, 2.7321871659987664, 5.12927974899867, 5.260653873996489, 6.314714957999968, 7.765533373996732, 10.665943165997305]",,Hiram2,001,2022-11-04_15h33.20.336,DS_Adapt1L,2022.2.4,60.43205876146691,
3,8,1,9,6,2,5,8,4,7,1,0,0,0,0,0,"['1', '8', '3']","['9', '1', '8', '3']","['6', '9', '1', '8', '3']","['2', '6', '9', '1', '8', '3']","['5', '2', '6', '9', '1', '8', '3']","['8', '5', '2', '6', '9', '1', '8', '3']","['4', '8', '5', '2', '6', '9', '1', '8', '3']","['7', '4', '8', '5', '2', '6', '9', '1', '8', '3']","['1', '7', '4', '8', '5', '2', '6', '9', '1', '8', '3']",None,None,None,None,None,,,,,,,,,0,8,8,8,,69183,,,,,,,,,,,1,,5,"['6', '9', '1', '8', '3']",0,"[1.9418429999968794, 5.486846207997587, 5.777747207997891, 7.227591291997669, 7.393186416997196, 8.987289207998401]",,Hiram2,001,2022-11-04_15h33.20.336,DS_Adapt1L,2022.2.4,60.43205876146691,
9,5,1,4,8,2,6,3,7,3,1,9,0,0,0,0,"['1', '5', '9']","['4', '1', '5', '9']","['8', '4', '1', '5', '9']","['2', '8', '4', '1', '5', '9']","['6', '2', '8', '4', '1', '5', '9']","['3', '6', '2', '8', '4', '1', '5', '9']","['7', '3', '6', '2', '8', '4', '1', '5', '9']","['3', '7', '3', '6', '2', '8', '4', '1', '5', '9']","['1', '3', '7', '3', '6', '2', '8', '4', '1', '5', '9']","['9', '1', '3', '7', '3', '6', '2', '8', '4', '1', '5', '9']",None,None,None,None,,,,,,,,,0,9,9,9,,284159,,,,,,,,,,,1,,6,"['2', '8', '4', '1', '5', '9']",0,"[1.6953317080005945, 1.8692159579986765, 4.157689624000341, 4.394848832998832, 6.444652165999287, 6.5760246659992845, 8.85359008299929]",,Hiram2,001,2022-11-04_15h33.20.336,DS_Adapt1L,2022.2.4,60.43205876146691,
5,8,4,1,9,2,7,3,6,2,8,1,6,0,0,0,"['4', '8', '5']","['1', '4', '8', '5']","['9', '1', '4', '8', '5']","['2', '9', '1', '4', '8', '5']","['7', '2', '9', '1', '4', '8', '5']","['3', '7', '2', '9', '1', '4', '8', '5']","['6', '3', '7', '2', '9', '1', '4', '8', '5']","['2', '6', '3', '7', '2', '9', '1', '4', '8', '5']","['8', '2', '6', '3', '7', '2', '9', '1', '4', '8', '5']","['1', '8', '2', '6', '3', '7', '2', '9', '1', '4', '8', '5']","['6', '1', '8', '2', '6', '3', '7', '2', '9', '1', '4', '8', '5']",None,None,None,,,,,,,,,0,10,10,10,,7291485,,,,,,,,,,,1,,7,"['7', '2', '9', '1', '4', '8', '5']",0,"[1.1990522079977382, 2.2448062490002485, 2.43199383299725, 7.051238790998468, 7.206379707997257, 8.01235924899811, 8.095871915997122, 12.40379083299922]",,Hiram2,001,2022-11-04_15h33.20.336,DS_Adapt1L,2022.2.4,60.43205876146691,
1,6,9,4,7,2,5,8,3,9,4,7,2,6,0,0,"['9', '6', '1']","['4', '9', '6', '1']","['7', '4', '9', '6', '1']","['2', '7', '4', '9', '6', '1']","['5', '2', '7', '4', '9', '6', '1']","['8', '5', '2', '7', '4', '9', '6', '1']","['3', '8', '5', '2', '7', '4', '9', '6', '1']","['9', '3', '8', '5', '2', '7', '4', '9', '6', '1']","['4', '9', '3', '8', '5', '2', '7', '4', '9', '6', '1']","['7', '4', '9', '3', '8', '5', '2', '7', '4', '9', '6', '1']","['2', '7', '4', '9', '3', '8', '5', '2', '7', '4', '9', '6', '1']","['6', '2', '7', '4', '9', '3', '8', '5', '2', '7', '4', '9', '6', '1']",None,None,,,,,,,,,0,11,11,11,,8274169,,,,,,,,,,,0,,8,"['8', '2', '7', '4', '1', '6', '9']",0,"[4.074099458001001, 7.367225792000681, 7.65681108300123, 7.815700333001587, 8.909071458001563, 10.015117833001568, 10.131931832998816, 21.59952254200107]",,Hiram2,001,2022-11-04_15h33.20.336,DS_Adapt1L,2022.2.4,60.43205876146691,
2,7,4,9,1,6,3,8,5,9,4,1,7,2,8,0,"['4', '7', '2']","['9', '4', '7', '2']","['1', '9', '4', '7', '2']","['6', '1', '9', '4', '7', '2']","['3', '6', '1', '9', '4', '7', '2']","['8', '3', '6', '1', '9', '4', '7', '2']","['5', '8', '3', '6', '1', '9', '4', '7', '2']","['9', '5', '8', '3', '6', '1', '9', '4', '7', '2']","['4', '9', '5', '8', '3', '6', '1', '9', '4', '7', '2']","['1', '4', '9', '5', '8', '3', '6', '1', '9', '4', '7', '2']","['7', '1', '4', '9', '5', '8', '3', '6', '1', '9', '4', '7', '2']","['2', '7', '1', '4', '9', '5', '8', '3', '6', '1', '9', '4', '7', '2']","['8', '2', '7', '1', '4', '9', '5', '8', '3', '6', '1', '9', '4', '7', '2']",None,,,,,,,,,0,12,12,12,,83452172,,,,,,,,,,,0,,8,"['8', '3', '4', '5', '2', '1', '7', '2']",0,"[5.645857665997028, 5.6953824989977875, 11.585367498999403, 11.890470873997401, 12.039444957998057, 13.10068733299704, 13.532627998996759, 13.629284498998459, 15.17823891599619]",,Hiram2,001,2022-11-04_15h33.20.336,DS_Adapt1L,2022.2.4,60.43205876146691,
7,1,4,8,2,6,3,9,5,8,5,9,1,4,7,2,"['4', '1', '7']","['8', '4', '1', '7']","['2', '8', '4', '1', '7']","['6', '2', '8', '4', '1', '7']","['3', '6', '2', '8', '4', '1', '7']","['9', '3', '6', '2', '8', '4', '1', '7']","['5', '9', '3', '6', '2', '8', '4', '1', '7']","['8', '5', '9', '3', '6', '2', '8', '4', '1', '7']","['5', '8', '5', '9', '3', '6', '2', '8', '4', '1', '7']","['9', '5', '8', '5', '9', '3', '6', '2', '8', '4', '1', '7']","['1', '9', '5', '8', '5', '9', '3', '6', '2', '8', '4', '1', '7']","['4', '1', '9', '5', '8', '5', '9', '3', '6', '2', '8', '4', '1', '7']","['7', '4', '1', '9', '5', '8', '5', '9', '3', '6', '2', '8', '4', '1', '7']","['2', '7', '4', '1', '9', '5', '8', '5', '9', '3', '6', '2', '8', '4', '1', '7']",,,,,,,,,0,13,13,13,,3628417,,,,,,,,,,,1,,7,"['3', '6', '2', '8', '4', '1', '7']",0,"[2.2879979579956853, 2.43030162499781, 8.031926707997627, 8.222790582996822, 11.448982082998555, 11.931885582998802, 12.088876207995781, 14.27293995799846]",,Hiram2,001,2022-11-04_15h33.20.336,DS_Adapt1L,2022.2.4,60.43205876146691,
,,,,,,,,,,,,,,,,,,,,,,,,,,,,,,,,,,,,,,,,,,,,,,,,,,,,,,,,,,,,6.0,,,,,,,
