stimulus_prac1,corrAns_prac1,stimulus_test1,corrAns_test1,stimulus_test2,corrAns_test2,prac_trials.thisRepN,prac_trials.thisTrialN,prac_trials.thisN,prac_trials.thisIndex,test1trial.thisRepN,test1trial.thisTrialN,test1trial.thisN,test1trial.thisIndex,test2trial.thisRepN,test2trial.thisTrialN,test2trial.thisN,test2trial.thisIndex,image_welcome.started,resp_Welcome.started,resp_Welcome.keys,resp_Welcome.rt,resp_Instr_Intro.started,image_Instr_Intro.started,resp_Instr_Intro.keys,resp_Instr_Intro.rt,resp_Instr_Prac1.started,image_Instr_Prac1.started,resp_Instr_Prac1.keys,resp_Instr_Prac1.rt,text_trial_Prac1.started,resp_trial_Prac1.started,text_trial_Prac1.stopped,resp_trial_Prac1.keys,resp_trial_Prac1.corr,resp_trial_Prac1.rt,text_Feedback_Prac1.started,resp_Instr_Test1.started,image_Instr_Test1.started,resp_Instr_Test1.keys,resp_Instr_Test1.rt,text_trial_Test1.started,resp_trial_Test1.started,text_trial_Test1.stopped,resp_trial_Test1.keys,resp_trial_Test1.corr,resp_trial_Test1.rt,resp_Instr_Test2.started,image_Instr_Test2.started,resp_Instr_Test2.keys,resp_Instr_Test2.rt,text_trial_Test2.started,key_resp.started,text_trial_Test2.stopped,key_resp.keys,key_resp.corr,key_resp.rt,resp_theEnd.started,image_theEnd.started,resp_theEnd.keys,resp_theEnd.rt,participant,session,date,expName,psychopyVersion,frameRate,
,,,,,,,,,,,,,,,,,,23.937728099990636,23.937728099990636,space,19.85834070004057,,,,,,,,,,,,,,,,,,,,,,,,,,,,,,,,,,,,,,,,Anapaolaarcos2,001,2022-11-03_15h55.43.001,Trial go no go,2022.2.4,60.0287297451941,
,,,,,,,,,,,,,,,,,,,,,,43.81461920007132,44.315074300044216,space,29.52369629999157,,,,,,,,,,,,,,,,,,,,,,,,,,,,,,,,,,,,Anapaolaarcos2,001,2022-11-03_15h55.43.001,Trial go no go,2022.2.4,60.0287297451941,
,,,,,,,,,,,,,,,,,,,,,,,,,,73.35901860008016,73.84340310003608,space,14.76619330001995,,,,,,,,,,,,,,,,,,,,,,,,,,,,,,,,Anapaolaarcos2,001,2022-11-03_15h55.43.001,Trial go no go,2022.2.4,60.0287297451941,
X,space,,,,,0,0,0,3,,,,,,,,,,,,,,,,,,,,,88.20170760003384,88.20170760003384,88.80621559999418,space,1,0.6529506000224501,90.17486320005264,,,,,,,,,,,,,,,,,,,,,,,,,Anapaolaarcos2,001,2022-11-03_15h55.43.001,Trial go no go,2022.2.4,60.0287297451941,
K,none,,,,,0,1,1,14,,,,,,,,,,,,,,,,,,,,,90.87194430001546,90.87194430001546,91.47198060003575,None,1,,92.87200900004245,,,,,,,,,,,,,,,,,,,,,,,,,Anapaolaarcos2,001,2022-11-03_15h55.43.001,Trial go no go,2022.2.4,60.0287297451941,
X,space,,,,,0,2,2,11,,,,,,,,,,,,,,,,,,,,,93.57466929999646,93.57466929999646,94.18883830006234,space,1,0.5664465998997912,95.57186390005518,,,,,,,,,,,,,,,,,,,,,,,,,Anapaolaarcos2,001,2022-11-03_15h55.43.001,Trial go no go,2022.2.4,60.0287297451941,
X,space,,,,,0,3,3,12,,,,,,,,,,,,,,,,,,,,,96.27171650005039,96.27171650005039,96.87137609999627,space,1,0.46798109996598214,98.27143930003513,,,,,,,,,,,,,,,,,,,,,,,,,Anapaolaarcos2,001,2022-11-03_15h55.43.001,Trial go no go,2022.2.4,60.0287297451941,
W,none,,,,,0,4,4,4,,,,,,,,,,,,,,,,,,,,,98.9877757000504,98.9877757000504,99.58783930004574,None,1,,100.97087760001887,,,,,,,,,,,,,,,,,,,,,,,,,Anapaolaarcos2,001,2022-11-03_15h55.43.001,Trial go no go,2022.2.4,60.0287297451941,
V,none,,,,,0,5,5,9,,,,,,,,,,,,,,,,,,,,,101.68207870004699,101.68207870004699,102.28709550003987,None,1,,103.66963460005354,,,,,,,,,,,,,,,,,,,,,,,,,Anapaolaarcos2,001,2022-11-03_15h55.43.001,Trial go no go,2022.2.4,60.0287297451941,
X,space,,,,,0,6,6,13,,,,,,,,,,,,,,,,,,,,,104.36971470003482,104.36971470003482,104.969277300057,space,1,0.4354917999589816,106.36913810006808,,,,,,,,,,,,,,,,,,,,,,,,,Anapaolaarcos2,001,2022-11-03_15h55.43.001,Trial go no go,2022.2.4,60.0287297451941,
X,space,,,,,0,7,7,2,,,,,,,,,,,,,,,,,,,,,107.06895000010263,107.06895000010263,107.66875340009574,space,1,0.4947376000927761,109.06856020004489,,,,,,,,,,,,,,,,,,,,,,,,,Anapaolaarcos2,001,2022-11-03_15h55.43.001,Trial go no go,2022.2.4,60.0287297451941,
X,space,,,,,0,8,8,10,,,,,,,,,,,,,,,,,,,,,109.76837750000414,109.76837750000414,110.36825170007069,space,1,0.4218115999829024,111.76795420004055,,,,,,,,,,,,,,,,,,,,,,,,,Anapaolaarcos2,001,2022-11-03_15h55.43.001,Trial go no go,2022.2.4,60.0287297451941,
X,space,,,,,0,9,9,0,,,,,,,,,,,,,,,,,,,,,112.46864820003975,112.46864820003975,113.06857540004421,space,1,0.5131962000159547,114.46803780004848,,,,,,,,,,,,,,,,,,,,,,,,,Anapaolaarcos2,001,2022-11-03_15h55.43.001,Trial go no go,2022.2.4,60.0287297451941,
X,space,,,,,0,10,10,1,,,,,,,,,,,,,,,,,,,,,115.1681103000883,115.1681103000883,115.76788920001127,space,1,0.41995920008048415,117.1677636000095,,,,,,,,,,,,,,,,,,,,,,,,,Anapaolaarcos2,001,2022-11-03_15h55.43.001,Trial go no go,2022.2.4,60.0287297451941,
X,space,,,,,0,11,11,5,,,,,,,,,,,,,,,,,,,,,117.86749060009606,117.86749060009606,118.46752599999309,space,1,0.42996430001221597,119.86730040004477,,,,,,,,,,,,,,,,,,,,,,,,,Anapaolaarcos2,001,2022-11-03_15h55.43.001,Trial go no go,2022.2.4,60.0287297451941,
X,space,,,,,0,12,12,6,,,,,,,,,,,,,,,,,,,,,120.56667830003425,120.56667830003425,121.16673320007976,space,1,0.4642405000049621,122.56576140003745,,,,,,,,,,,,,,,,,,,,,,,,,Anapaolaarcos2,001,2022-11-03_15h55.43.001,Trial go no go,2022.2.4,60.0287297451941,
X,space,,,,,0,13,13,8,,,,,,,,,,,,,,,,,,,,,123.26573800004553,123.26573800004553,123.8654996000696,space,1,0.47317030001431704,125.26579850004055,,,,,,,,,,,,,,,,,,,,,,,,,Anapaolaarcos2,001,2022-11-03_15h55.43.001,Trial go no go,2022.2.4,60.0287297451941,
X,space,,,,,0,14,14,7,,,,,,,,,,,,,,,,,,,,,125.96522130002268,125.96522130002268,126.56511990004219,space,1,0.3985126999905333,127.96486120007467,,,,,,,,,,,,,,,,,,,,,,,,,Anapaolaarcos2,001,2022-11-03_15h55.43.001,Trial go no go,2022.2.4,60.0287297451941,
,,,,,,,,,,,,,,,,,,,,,,,,,,,,,,,,,,,,,128.6645351999905,129.1485920000123,space,6.3697008999297395,,,,,,,,,,,,,,,,,,,,,Anapaolaarcos2,001,2022-11-03_15h55.43.001,Trial go no go,2022.2.4,60.0287297451941,
,,X,space,,,,,,,0,0,0,45,,,,,,,,,,,,,,,,,,,,,,,,,,,,135.0861877000425,135.0861877000425,135.39752650004812,space,1,0.4430717999348417,,,,,,,,,,,,,,,Anapaolaarcos2,001,2022-11-03_15h55.43.001,Trial go no go,2022.2.4,60.0287297451941,
,,X,space,,,,,,,0,1,1,23,,,,,,,,,,,,,,,,,,,,,,,,,,,,136.08058070007246,136.08058070007246,136.38067690003663,space,1,0.334924399969168,,,,,,,,,,,,,,,Anapaolaarcos2,001,2022-11-03_15h55.43.001,Trial go no go,2022.2.4,60.0287297451941,
,,X,space,,,,,,,0,2,2,28,,,,,,,,,,,,,,,,,,,,,,,,,,,,137.08075359999202,137.08075359999202,137.38046910008416,space,1,0.3221180000109598,,,,,,,,,,,,,,,Anapaolaarcos2,001,2022-11-03_15h55.43.001,Trial go no go,2022.2.4,60.0287297451941,
,,X,space,,,,,,,0,3,3,30,,,,,,,,,,,,,,,,,,,,,,,,,,,,138.08030190004501,138.08030190004501,138.38024500000756,space,1,0.28631590004079044,,,,,,,,,,,,,,,Anapaolaarcos2,001,2022-11-03_15h55.43.001,Trial go no go,2022.2.4,60.0287297451941,
,,W,none,,,,,,,0,4,4,9,,,,,,,,,,,,,,,,,,,,,,,,,,,,139.08294009999372,139.08294009999372,139.39672360010445,None,1,,,,,,,,,,,,,,,,Anapaolaarcos2,001,2022-11-03_15h55.43.001,Trial go no go,2022.2.4,60.0287297451941,
,,X,space,,,,,,,0,5,5,33,,,,,,,,,,,,,,,,,,,,,,,,,,,,140.08276040002238,140.08276040002238,140.39654190000147,space,1,0.36093070008791983,,,,,,,,,,,,,,,Anapaolaarcos2,001,2022-11-03_15h55.43.001,Trial go no go,2022.2.4,60.0287297451941,
,,X,space,,,,,,,0,6,6,12,,,,,,,,,,,,,,,,,,,,,,,,,,,,141.07992440008093,141.07992440008093,141.37965800007805,space,1,0.39070720004383475,,,,,,,,,,,,,,,Anapaolaarcos2,001,2022-11-03_15h55.43.001,Trial go no go,2022.2.4,60.0287297451941,
,,X,space,,,,,,,0,7,7,20,,,,,,,,,,,,,,,,,,,,,,,,,,,,142.07951070007402,142.07951070007402,142.37947010004427,space,1,0.33415510004851967,,,,,,,,,,,,,,,Anapaolaarcos2,001,2022-11-03_15h55.43.001,Trial go no go,2022.2.4,60.0287297451941,
,,H,none,,,,,,,0,8,8,24,,,,,,,,,,,,,,,,,,,,,,,,,,,,143.09224900009576,143.09224900009576,143.39610290003475,None,1,,,,,,,,,,,,,,,,Anapaolaarcos2,001,2022-11-03_15h55.43.001,Trial go no go,2022.2.4,60.0287297451941,
,,X,space,,,,,,,0,9,9,15,,,,,,,,,,,,,,,,,,,,,,,,,,,,144.07850580010563,144.07850580010563,144.37864890007768,space,1,0.39630729996133596,,,,,,,,,,,,,,,Anapaolaarcos2,001,2022-11-03_15h55.43.001,Trial go no go,2022.2.4,60.0287297451941,
,,Y,none,,,,,,,0,10,10,14,,,,,,,,,,,,,,,,,,,,,,,,,,,,145.07814270001836,145.07814270001836,145.37801800004672,None,1,,,,,,,,,,,,,,,,Anapaolaarcos2,001,2022-11-03_15h55.43.001,Trial go no go,2022.2.4,60.0287297451941,
,,X,space,,,,,,,0,11,11,25,,,,,,,,,,,,,,,,,,,,,,,,,,,,146.07802530005574,146.07802530005574,146.37799020006787,space,1,0.49048859998583794,,,,,,,,,,,,,,,Anapaolaarcos2,001,2022-11-03_15h55.43.001,Trial go no go,2022.2.4,60.0287297451941,
,,T,none,,,,,,,0,12,12,29,,,,,,,,,,,,,,,,,,,,,,,,,,,,147.07788140000775,147.07788140000775,147.37803220003843,None,1,,,,,,,,,,,,,,,,Anapaolaarcos2,001,2022-11-03_15h55.43.001,Trial go no go,2022.2.4,60.0287297451941,
,,X,space,,,,,,,0,13,13,46,,,,,,,,,,,,,,,,,,,,,,,,,,,,148.077813000069,148.077813000069,148.3776315000141,space,1,0.2990260000806302,,,,,,,,,,,,,,,Anapaolaarcos2,001,2022-11-03_15h55.43.001,Trial go no go,2022.2.4,60.0287297451941,
,,X,space,,,,,,,0,14,14,47,,,,,,,,,,,,,,,,,,,,,,,,,,,,149.07741800008807,149.07741800008807,149.3773526001023,space,1,0.4398879000218585,,,,,,,,,,,,,,,Anapaolaarcos2,001,2022-11-03_15h55.43.001,Trial go no go,2022.2.4,60.0287297451941,
,,X,space,,,,,,,0,15,15,11,,,,,,,,,,,,,,,,,,,,,,,,,,,,150.07770450005773,150.07770450005773,150.37717170000542,space,1,0.41451569995842874,,,,,,,,,,,,,,,Anapaolaarcos2,001,2022-11-03_15h55.43.001,Trial go no go,2022.2.4,60.0287297451941,
,,X,space,,,,,,,0,16,16,8,,,,,,,,,,,,,,,,,,,,,,,,,,,,151.0770272000227,151.0770272000227,151.37699320004322,space,1,0.3284260999644175,,,,,,,,,,,,,,,Anapaolaarcos2,001,2022-11-03_15h55.43.001,Trial go no go,2022.2.4,60.0287297451941,
,,X,space,,,,,,,0,17,17,10,,,,,,,,,,,,,,,,,,,,,,,,,,,,152.07678470003884,152.07678470003884,152.37684510007966,space,1,0.3366847999859601,,,,,,,,,,,,,,,Anapaolaarcos2,001,2022-11-03_15h55.43.001,Trial go no go,2022.2.4,60.0287297451941,
,,M,none,,,,,,,0,18,18,39,,,,,,,,,,,,,,,,,,,,,,,,,,,,153.07648100005463,153.07648100005463,153.37701520009432,None,1,,,,,,,,,,,,,,,,Anapaolaarcos2,001,2022-11-03_15h55.43.001,Trial go no go,2022.2.4,60.0287297451941,
,,X,space,,,,,,,0,19,19,43,,,,,,,,,,,,,,,,,,,,,,,,,,,,154.08061930001713,154.08061930001713,154.39386620000005,space,1,0.3600419000722468,,,,,,,,,,,,,,,Anapaolaarcos2,001,2022-11-03_15h55.43.001,Trial go no go,2022.2.4,60.0287297451941,
,,X,space,,,,,,,0,20,20,37,,,,,,,,,,,,,,,,,,,,,,,,,,,,155.07711710000876,155.07711710000876,155.37712610000744,space,1,0.40388600004371256,,,,,,,,,,,,,,,Anapaolaarcos2,001,2022-11-03_15h55.43.001,Trial go no go,2022.2.4,60.0287297451941,
,,X,space,,,,,,,0,21,21,21,,,,,,,,,,,,,,,,,,,,,,,,,,,,156.07677869999316,156.07677869999316,156.37691920006182,space,1,0.3142740000039339,,,,,,,,,,,,,,,Anapaolaarcos2,001,2022-11-03_15h55.43.001,Trial go no go,2022.2.4,60.0287297451941,
,,X,space,,,,,,,0,22,22,32,,,,,,,,,,,,,,,,,,,,,,,,,,,,157.07646620005835,157.07646620005835,157.3767187000485,space,1,0.3298850000137463,,,,,,,,,,,,,,,Anapaolaarcos2,001,2022-11-03_15h55.43.001,Trial go no go,2022.2.4,60.0287297451941,
,,X,space,,,,,,,0,23,23,6,,,,,,,,,,,,,,,,,,,,,,,,,,,,158.07649210002273,158.07649210002273,158.37632140005007,space,1,0.35750839998945594,,,,,,,,,,,,,,,Anapaolaarcos2,001,2022-11-03_15h55.43.001,Trial go no go,2022.2.4,60.0287297451941,
,,X,space,,,,,,,0,24,24,42,,,,,,,,,,,,,,,,,,,,,,,,,,,,159.07622010004707,159.07622010004707,159.37617950001732,space,1,0.30684520001523197,,,,,,,,,,,,,,,Anapaolaarcos2,001,2022-11-03_15h55.43.001,Trial go no go,2022.2.4,60.0287297451941,
,,X,space,,,,,,,0,25,25,38,,,,,,,,,,,,,,,,,,,,,,,,,,,,160.07626410003286,160.07626410003286,160.3759943000041,space,1,0.26696229993831366,,,,,,,,,,,,,,,Anapaolaarcos2,001,2022-11-03_15h55.43.001,Trial go no go,2022.2.4,60.0287297451941,
,,X,space,,,,,,,0,26,26,16,,,,,,,,,,,,,,,,,,,,,,,,,,,,161.07568380003795,161.07568380003795,161.37570560001768,space,1,0.3371632000198588,,,,,,,,,,,,,,,Anapaolaarcos2,001,2022-11-03_15h55.43.001,Trial go no go,2022.2.4,60.0287297451941,
,,N,none,,,,,,,0,27,27,34,,,,,,,,,,,,,,,,,,,,,,,,,,,,162.0987556000473,162.0987556000473,162.40858799999114,None,1,,,,,,,,,,,,,,,,Anapaolaarcos2,001,2022-11-03_15h55.43.001,Trial go no go,2022.2.4,60.0287297451941,
,,X,space,,,,,,,0,28,28,26,,,,,,,,,,,,,,,,,,,,,,,,,,,,163.074582500034,163.074582500034,163.3750039000297,space,1,0.38955099997110665,,,,,,,,,,,,,,,Anapaolaarcos2,001,2022-11-03_15h55.43.001,Trial go no go,2022.2.4,60.0287297451941,
,,X,space,,,,,,,0,29,29,5,,,,,,,,,,,,,,,,,,,,,,,,,,,,164.0746299000457,164.0746299000457,164.37468090001494,space,1,0.38989310001488775,,,,,,,,,,,,,,,Anapaolaarcos2,001,2022-11-03_15h55.43.001,Trial go no go,2022.2.4,60.0287297451941,
,,X,space,,,,,,,0,30,30,22,,,,,,,,,,,,,,,,,,,,,,,,,,,,165.07474440010265,165.07474440010265,165.37440510001034,space,1,0.3217122000642121,,,,,,,,,,,,,,,Anapaolaarcos2,001,2022-11-03_15h55.43.001,Trial go no go,2022.2.4,60.0287297451941,
,,X,space,,,,,,,0,31,31,41,,,,,,,,,,,,,,,,,,,,,,,,,,,,166.07446760009043,166.07446760009043,166.37394459999632,space,1,0.2913084999890998,,,,,,,,,,,,,,,Anapaolaarcos2,001,2022-11-03_15h55.43.001,Trial go no go,2022.2.4,60.0287297451941,
,,X,space,,,,,,,0,32,32,27,,,,,,,,,,,,,,,,,,,,,,,,,,,,167.07405390008353,167.07405390008353,167.37386640009936,space,1,0.31680300005245954,,,,,,,,,,,,,,,Anapaolaarcos2,001,2022-11-03_15h55.43.001,Trial go no go,2022.2.4,60.0287297451941,
,,K,none,,,,,,,0,33,33,19,,,,,,,,,,,,,,,,,,,,,,,,,,,,168.0738030000357,168.0738030000357,168.37363270006608,None,1,,,,,,,,,,,,,,,,Anapaolaarcos2,001,2022-11-03_15h55.43.001,Trial go no go,2022.2.4,60.0287297451941,
,,X,space,,,,,,,0,34,34,48,,,,,,,,,,,,,,,,,,,,,,,,,,,,169.0736154000042,169.0736154000042,169.37339650001377,space,1,0.3681817000033334,,,,,,,,,,,,,,,Anapaolaarcos2,001,2022-11-03_15h55.43.001,Trial go no go,2022.2.4,60.0287297451941,
,,X,space,,,,,,,0,35,35,13,,,,,,,,,,,,,,,,,,,,,,,,,,,,170.07361469999887,170.07361469999887,170.37323230004404,space,1,0.3268554999958724,,,,,,,,,,,,,,,Anapaolaarcos2,001,2022-11-03_15h55.43.001,Trial go no go,2022.2.4,60.0287297451941,
,,X,space,,,,,,,0,36,36,40,,,,,,,,,,,,,,,,,,,,,,,,,,,,171.07357310003135,171.07357310003135,171.37301490001846,space,1,0.37869469996076077,,,,,,,,,,,,,,,Anapaolaarcos2,001,2022-11-03_15h55.43.001,Trial go no go,2022.2.4,60.0287297451941,
,,X,space,,,,,,,0,37,37,0,,,,,,,,,,,,,,,,,,,,,,,,,,,,172.07301690010354,172.07301690010354,172.37291460006963,space,1,0.3287439000559971,,,,,,,,,,,,,,,Anapaolaarcos2,001,2022-11-03_15h55.43.001,Trial go no go,2022.2.4,60.0287297451941,
,,X,space,,,,,,,0,38,38,2,,,,,,,,,,,,,,,,,,,,,,,,,,,,173.07271850004327,173.07271850004327,173.3735307001043,space,1,0.291950499988161,,,,,,,,,,,,,,,Anapaolaarcos2,001,2022-11-03_15h55.43.001,Trial go no go,2022.2.4,60.0287297451941,
,,X,space,,,,,,,0,39,39,1,,,,,,,,,,,,,,,,,,,,,,,,,,,,174.07242300000507,174.07242300000507,174.3721238001017,space,1,0.265461599919945,,,,,,,,,,,,,,,Anapaolaarcos2,001,2022-11-03_15h55.43.001,Trial go no go,2022.2.4,60.0287297451941,
,,X,space,,,,,,,0,40,40,18,,,,,,,,,,,,,,,,,,,,,,,,,,,,175.07215170003474,175.07215170003474,175.37228020001203,space,1,0.30645709997043014,,,,,,,,,,,,,,,Anapaolaarcos2,001,2022-11-03_15h55.43.001,Trial go no go,2022.2.4,60.0287297451941,
,,E,none,,,,,,,0,41,41,49,,,,,,,,,,,,,,,,,,,,,,,,,,,,176.08014780003577,176.08014780003577,176.38849400007166,None,1,,,,,,,,,,,,,,,,Anapaolaarcos2,001,2022-11-03_15h55.43.001,Trial go no go,2022.2.4,60.0287297451941,
,,X,space,,,,,,,0,42,42,31,,,,,,,,,,,,,,,,,,,,,,,,,,,,177.07632160000503,177.07632160000503,177.38877090008464,space,1,0.30929730006027967,,,,,,,,,,,,,,,Anapaolaarcos2,001,2022-11-03_15h55.43.001,Trial go no go,2022.2.4,60.0287297451941,
,,F,none,,,,,,,0,43,43,44,,,,,,,,,,,,,,,,,,,,,,,,,,,,178.07178630004637,178.07178630004637,178.37174700002652,None,1,,,,,,,,,,,,,,,,Anapaolaarcos2,001,2022-11-03_15h55.43.001,Trial go no go,2022.2.4,60.0287297451941,
,,X,space,,,,,,,0,44,44,7,,,,,,,,,,,,,,,,,,,,,,,,,,,,179.0715309000807,179.0715309000807,179.37140820000786,space,1,0.3368239001138136,,,,,,,,,,,,,,,Anapaolaarcos2,001,2022-11-03_15h55.43.001,Trial go no go,2022.2.4,60.0287297451941,
,,X,space,,,,,,,0,45,45,17,,,,,,,,,,,,,,,,,,,,,,,,,,,,180.07174750010017,180.07174750010017,180.37117640010547,space,1,0.34463479998521507,,,,,,,,,,,,,,,Anapaolaarcos2,001,2022-11-03_15h55.43.001,Trial go no go,2022.2.4,60.0287297451941,
,,X,space,,,,,,,0,46,46,3,,,,,,,,,,,,,,,,,,,,,,,,,,,,181.07167199999094,181.07167199999094,181.37107270001434,space,1,0.3114872999722138,,,,,,,,,,,,,,,Anapaolaarcos2,001,2022-11-03_15h55.43.001,Trial go no go,2022.2.4,60.0287297451941,
,,X,space,,,,,,,0,47,47,35,,,,,,,,,,,,,,,,,,,,,,,,,,,,182.07088850007858,182.07088850007858,182.37131459999364,space,1,0.23805419995915145,,,,,,,,,,,,,,,Anapaolaarcos2,001,2022-11-03_15h55.43.001,Trial go no go,2022.2.4,60.0287297451941,
,,X,space,,,,,,,0,48,48,36,,,,,,,,,,,,,,,,,,,,,,,,,,,,183.0711860000156,183.0711860000156,183.37069030001294,space,1,0.2915311000542715,,,,,,,,,,,,,,,Anapaolaarcos2,001,2022-11-03_15h55.43.001,Trial go no go,2022.2.4,60.0287297451941,
,,V,none,,,,,,,0,49,49,4,,,,,,,,,,,,,,,,,,,,,,,,,,,,184.07056930009276,184.07056930009276,184.37058139999863,None,1,,,,,,,,,,,,,,,,Anapaolaarcos2,001,2022-11-03_15h55.43.001,Trial go no go,2022.2.4,60.0287297451941,
,,,,,,,,,,,,,,,,,,,,,,,,,,,,,,,,,,,,,,,,,,,,,,,185.07046290009748,185.5542909000069,space,13.39641980000306,,,,,,,,,,,Anapaolaarcos2,001,2022-11-03_15h55.43.001,Trial go no go,2022.2.4,60.0287297451941,
,,,,A,space,,,,,,,,,0,0,0,26,,,,,,,,,,,,,,,,,,,,,,,,,,,,,,,,,,198.48681590007618,198.48681590007618,198.80099310004152,space,1,0.5851662999484688,,,,,Anapaolaarcos2,001,2022-11-03_15h55.43.001,Trial go no go,2022.2.4,60.0287297451941,
,,,,H,space,,,,,,,,,0,1,1,28,,,,,,,,,,,,,,,,,,,,,,,,,,,,,,,,,,199.50107460003346,199.50107460003346,199.80092599999625,space,1,0.3541041000280529,,,,,Anapaolaarcos2,001,2022-11-03_15h55.43.001,Trial go no go,2022.2.4,60.0287297451941,
,,,,X,none,,,,,,,,,0,2,2,34,,,,,,,,,,,,,,,,,,,,,,,,,,,,,,,,,,200.50059730000794,200.50059730000794,200.80027400003746,None,1,,,,,,Anapaolaarcos2,001,2022-11-03_15h55.43.001,Trial go no go,2022.2.4,60.0287297451941,
,,,,F,space,,,,,,,,,0,3,3,27,,,,,,,,,,,,,,,,,,,,,,,,,,,,,,,,,,201.5004186000442,201.5004186000442,201.80064850009512,space,1,0.4760667000664398,,,,,Anapaolaarcos2,001,2022-11-03_15h55.43.001,Trial go no go,2022.2.4,60.0287297451941,
,,,,V,space,,,,,,,,,0,4,4,15,,,,,,,,,,,,,,,,,,,,,,,,,,,,,,,,,,202.50013050006237,202.50013050006237,202.7999936999986,space,1,0.42542660003528,,,,,Anapaolaarcos2,001,2022-11-03_15h55.43.001,Trial go no go,2022.2.4,60.0287297451941,
,,,,X,none,,,,,,,,,0,5,5,4,,,,,,,,,,,,,,,,,,,,,,,,,,,,,,,,,,203.49993160006125,203.49993160006125,203.800397300045,None,1,,,,,,Anapaolaarcos2,001,2022-11-03_15h55.43.001,Trial go no go,2022.2.4,60.0287297451941,
,,,,X,none,,,,,,,,,0,6,6,49,,,,,,,,,,,,,,,,,,,,,,,,,,,,,,,,,,204.49982710008044,204.49982710008044,204.79978780006059,None,1,,,,,,Anapaolaarcos2,001,2022-11-03_15h55.43.001,Trial go no go,2022.2.4,60.0287297451941,
,,,,M,space,,,,,,,,,0,7,7,17,,,,,,,,,,,,,,,,,,,,,,,,,,,,,,,,,,205.4996831000317,205.4996831000317,205.79995690006763,space,1,0.39877420000266284,,,,,Anapaolaarcos2,001,2022-11-03_15h55.43.001,Trial go no go,2022.2.4,60.0287297451941,
,,,,X,none,,,,,,,,,0,8,8,39,,,,,,,,,,,,,,,,,,,,,,,,,,,,,,,,,,206.49948970007244,206.49948970007244,206.79950130009092,None,1,,,,,,Anapaolaarcos2,001,2022-11-03_15h55.43.001,Trial go no go,2022.2.4,60.0287297451941,
,,,,K,space,,,,,,,,,0,9,9,30,,,,,,,,,,,,,,,,,,,,,,,,,,,,,,,,,,207.4993514000671,207.4993514000671,207.7990719000809,space,1,0.39942779997363687,,,,,Anapaolaarcos2,001,2022-11-03_15h55.43.001,Trial go no go,2022.2.4,60.0287297451941,
,,,,L,space,,,,,,,,,0,10,10,12,,,,,,,,,,,,,,,,,,,,,,,,,,,,,,,,,,208.49901240004692,208.49901240004692,208.7989733000286,space,1,0.5691150999628007,,,,,Anapaolaarcos2,001,2022-11-03_15h55.43.001,Trial go no go,2022.2.4,60.0287297451941,
,,,,K,space,,,,,,,,,0,11,11,48,,,,,,,,,,,,,,,,,,,,,,,,,,,,,,,,,,209.4987721000798,209.4987721000798,209.798872900079,space,1,0.5171334999613464,,,,,Anapaolaarcos2,001,2022-11-03_15h55.43.001,Trial go no go,2022.2.4,60.0287297451941,
,,,,K,space,,,,,,,,,0,12,12,11,,,,,,,,,,,,,,,,,,,,,,,,,,,,,,,,,,210.4990127000492,210.4990127000492,210.79888460005168,space,1,0.4116272000828758,,,,,Anapaolaarcos2,001,2022-11-03_15h55.43.001,Trial go no go,2022.2.4,60.0287297451941,
,,,,W,space,,,,,,,,,0,13,13,18,,,,,,,,,,,,,,,,,,,,,,,,,,,,,,,,,,211.49869350006338,211.49869350006338,211.79834440001287,space,1,0.4095322999637574,,,,,Anapaolaarcos2,001,2022-11-03_15h55.43.001,Trial go no go,2022.2.4,60.0287297451941,
,,,,L,space,,,,,,,,,0,14,14,31,,,,,,,,,,,,,,,,,,,,,,,,,,,,,,,,,,212.49855980009306,212.49855980009306,212.79810510005336,space,1,0.4841517999302596,,,,,Anapaolaarcos2,001,2022-11-03_15h55.43.001,Trial go no go,2022.2.4,60.0287297451941,
,,,,R,space,,,,,,,,,0,15,15,2,,,,,,,,,,,,,,,,,,,,,,,,,,,,,,,,,,213.49805940000806,213.49805940000806,213.79799540003296,space,1,0.424541600048542,,,,,Anapaolaarcos2,001,2022-11-03_15h55.43.001,Trial go no go,2022.2.4,60.0287297451941,
,,,,Z,space,,,,,,,,,0,16,16,32,,,,,,,,,,,,,,,,,,,,,,,,,,,,,,,,,,214.4977990000043,214.4977990000043,214.79773960006423,space,1,0.3689796000253409,,,,,Anapaolaarcos2,001,2022-11-03_15h55.43.001,Trial go no go,2022.2.4,60.0287297451941,
,,,,X,none,,,,,,,,,0,17,17,29,,,,,,,,,,,,,,,,,,,,,,,,,,,,,,,,,,215.49791120004375,215.49791120004375,215.7982064000098,None,1,,,,,,Anapaolaarcos2,001,2022-11-03_15h55.43.001,Trial go no go,2022.2.4,60.0287297451941,
,,,,E,space,,,,,,,,,0,18,18,20,,,,,,,,,,,,,,,,,,,,,,,,,,,,,,,,,,216.50063190003857,216.50063190003857,216.81446500006132,space,1,0.4542483000550419,,,,,Anapaolaarcos2,001,2022-11-03_15h55.43.001,Trial go no go,2022.2.4,60.0287297451941,
,,,,V,space,,,,,,,,,0,19,19,33,,,,,,,,,,,,,,,,,,,,,,,,,,,,,,,,,,217.497334600077,217.497334600077,217.79796490003355,space,1,0.3890894999494776,,,,,Anapaolaarcos2,001,2022-11-03_15h55.43.001,Trial go no go,2022.2.4,60.0287297451941,
,,,,E,space,,,,,,,,,0,20,20,1,,,,,,,,,,,,,,,,,,,,,,,,,,,,,,,,,,218.49891090008896,218.49891090008896,218.81431180005893,space,1,0.5009341998957098,,,,,Anapaolaarcos2,001,2022-11-03_15h55.43.001,Trial go no go,2022.2.4,60.0287297451941,
,,,,X,none,,,,,,,,,0,21,21,24,,,,,,,,,,,,,,,,,,,,,,,,,,,,,,,,,,219.49717280000914,219.49717280000914,219.79746850009542,None,1,,,,,,Anapaolaarcos2,001,2022-11-03_15h55.43.001,Trial go no go,2022.2.4,60.0287297451941,
,,,,X,none,,,,,,,,,0,22,22,19,,,,,,,,,,,,,,,,,,,,,,,,,,,,,,,,,,220.4974487000145,220.4974487000145,220.79710650001653,None,1,,,,,,Anapaolaarcos2,001,2022-11-03_15h55.43.001,Trial go no go,2022.2.4,60.0287297451941,
,,,,A,space,,,,,,,,,0,23,23,7,,,,,,,,,,,,,,,,,,,,,,,,,,,,,,,,,,221.50014970009215,221.50014970009215,221.814218500047,space,1,0.447580200037919,,,,,Anapaolaarcos2,001,2022-11-03_15h55.43.001,Trial go no go,2022.2.4,60.0287297451941,
,,,,H,space,,,,,,,,,0,24,24,47,,,,,,,,,,,,,,,,,,,,,,,,,,,,,,,,,,222.49753690010402,222.49753690010402,222.79697010002565,space,1,0.47580159991048276,,,,,Anapaolaarcos2,001,2022-11-03_15h55.43.001,Trial go no go,2022.2.4,60.0287297451941,
,,,,T,space,,,,,,,,,0,25,25,3,,,,,,,,,,,,,,,,,,,,,,,,,,,,,,,,,,223.49955520010553,223.49955520010553,223.81361920002382,space,1,0.3368341999594122,,,,,Anapaolaarcos2,001,2022-11-03_15h55.43.001,Trial go no go,2022.2.4,60.0287297451941,
,,,,T,space,,,,,,,,,0,26,26,22,,,,,,,,,,,,,,,,,,,,,,,,,,,,,,,,,,224.49658890010323,224.49658890010323,224.79656130005606,space,1,0.34086219989694655,,,,,Anapaolaarcos2,001,2022-11-03_15h55.43.001,Trial go no go,2022.2.4,60.0287297451941,
,,,,R,space,,,,,,,,,0,27,27,40,,,,,,,,,,,,,,,,,,,,,,,,,,,,,,,,,,225.5011066000443,225.5011066000443,225.8123448000988,space,1,0.34082399995531887,,,,,Anapaolaarcos2,001,2022-11-03_15h55.43.001,Trial go no go,2022.2.4,60.0287297451941,
,,,,H,space,,,,,,,,,0,28,28,10,,,,,,,,,,,,,,,,,,,,,,,,,,,,,,,,,,226.49587210000027,226.49587210000027,226.7953809000319,space,1,0.37556299997959286,,,,,Anapaolaarcos2,001,2022-11-03_15h55.43.001,Trial go no go,2022.2.4,60.0287297451941,
,,,,X,none,,,,,,,,,0,29,29,14,,,,,,,,,,,,,,,,,,,,,,,,,,,,,,,,,,227.49521920003463,227.49521920003463,227.79548299999442,space,0,0.3254817998968065,,,,,Anapaolaarcos2,001,2022-11-03_15h55.43.001,Trial go no go,2022.2.4,60.0287297451941,
,,,,F,space,,,,,,,,,0,30,30,8,,,,,,,,,,,,,,,,,,,,,,,,,,,,,,,,,,228.49545770010445,228.49545770010445,228.795013200026,space,1,0.6435366000514477,,,,,Anapaolaarcos2,001,2022-11-03_15h55.43.001,Trial go no go,2022.2.4,60.0287297451941,
,,,,A,space,,,,,,,,,0,31,31,45,,,,,,,,,,,,,,,,,,,,,,,,,,,,,,,,,,229.49476330005564,229.49476330005564,229.7951311999932,space,1,0.3846602999838069,,,,,Anapaolaarcos2,001,2022-11-03_15h55.43.001,Trial go no go,2022.2.4,60.0287297451941,
,,,,I,space,,,,,,,,,0,32,32,25,,,,,,,,,,,,,,,,,,,,,,,,,,,,,,,,,,230.49445790005848,230.49445790005848,230.79465420008637,space,1,0.4081485999049619,,,,,Anapaolaarcos2,001,2022-11-03_15h55.43.001,Trial go no go,2022.2.4,60.0287297451941,
,,,,W,space,,,,,,,,,0,33,33,0,,,,,,,,,,,,,,,,,,,,,,,,,,,,,,,,,,231.49441350006964,231.49441350006964,231.79433649999555,space,1,0.484301499905996,,,,,Anapaolaarcos2,001,2022-11-03_15h55.43.001,Trial go no go,2022.2.4,60.0287297451941,
,,,,R,space,,,,,,,,,0,34,34,21,,,,,,,,,,,,,,,,,,,,,,,,,,,,,,,,,,232.49443369999062,232.49443369999062,232.7942725000903,space,1,0.3647231999784708,,,,,Anapaolaarcos2,001,2022-11-03_15h55.43.001,Trial go no go,2022.2.4,60.0287297451941,
,,,,E,space,,,,,,,,,0,35,35,38,,,,,,,,,,,,,,,,,,,,,,,,,,,,,,,,,,233.4942573000444,233.4942573000444,233.79406410001684,space,1,0.3482815999304876,,,,,Anapaolaarcos2,001,2022-11-03_15h55.43.001,Trial go no go,2022.2.4,60.0287297451941,
,,,,Y,space,,,,,,,,,0,36,36,42,,,,,,,,,,,,,,,,,,,,,,,,,,,,,,,,,,234.49401250004303,234.49401250004303,234.79393570008688,space,1,0.3321627000113949,,,,,Anapaolaarcos2,001,2022-11-03_15h55.43.001,Trial go no go,2022.2.4,60.0287297451941,
,,,,X,none,,,,,,,,,0,37,37,44,,,,,,,,,,,,,,,,,,,,,,,,,,,,,,,,,,235.49784080008976,235.49784080008976,235.8111205000896,None,1,,,,,,Anapaolaarcos2,001,2022-11-03_15h55.43.001,Trial go no go,2022.2.4,60.0287297451941,
,,,,W,space,,,,,,,,,0,38,38,37,,,,,,,,,,,,,,,,,,,,,,,,,,,,,,,,,,236.49921330006327,236.49921330006327,236.81095469999127,space,1,0.3869965000776574,,,,,Anapaolaarcos2,001,2022-11-03_15h55.43.001,Trial go no go,2022.2.4,60.0287297451941,
,,,,I,space,,,,,,,,,0,39,39,43,,,,,,,,,,,,,,,,,,,,,,,,,,,,,,,,,,237.49939960008487,237.49939960008487,237.8108227000339,space,1,0.4096453000092879,,,,,Anapaolaarcos2,001,2022-11-03_15h55.43.001,Trial go no go,2022.2.4,60.0287297451941,
,,,,Y,space,,,,,,,,,0,40,40,23,,,,,,,,,,,,,,,,,,,,,,,,,,,,,,,,,,238.49818420002703,238.49818420002703,238.81077620002907,space,1,0.3448759999591857,,,,,Anapaolaarcos2,001,2022-11-03_15h55.43.001,Trial go no go,2022.2.4,60.0287297451941,
,,,,Z,space,,,,,,,,,0,41,41,13,,,,,,,,,,,,,,,,,,,,,,,,,,,,,,,,,,239.49494650005363,239.49494650005363,239.81037459999789,space,1,0.3822521000402048,,,,,Anapaolaarcos2,001,2022-11-03_15h55.43.001,Trial go no go,2022.2.4,60.0287297451941,
,,,,Y,space,,,,,,,,,0,42,42,5,,,,,,,,,,,,,,,,,,,,,,,,,,,,,,,,,,240.49567249999382,240.49567249999382,240.80999800004065,space,1,0.3776078999508172,,,,,Anapaolaarcos2,001,2022-11-03_15h55.43.001,Trial go no go,2022.2.4,60.0287297451941,
,,,,I,space,,,,,,,,,0,43,43,6,,,,,,,,,,,,,,,,,,,,,,,,,,,,,,,,,,241.49316970002837,241.49316970002837,241.79315060004592,space,1,0.36114459997043014,,,,,Anapaolaarcos2,001,2022-11-03_15h55.43.001,Trial go no go,2022.2.4,60.0287297451941,
,,,,T,space,,,,,,,,,0,44,44,41,,,,,,,,,,,,,,,,,,,,,,,,,,,,,,,,,,242.497742400039,242.497742400039,242.80981800006703,space,1,0.4019384999992326,,,,,Anapaolaarcos2,001,2022-11-03_15h55.43.001,Trial go no go,2022.2.4,60.0287297451941,
,,,,N,space,,,,,,,,,0,45,45,16,,,,,,,,,,,,,,,,,,,,,,,,,,,,,,,,,,243.4951921000611,243.4951921000611,243.80961280001793,space,1,0.41694280004594475,,,,,Anapaolaarcos2,001,2022-11-03_15h55.43.001,Trial go no go,2022.2.4,60.0287297451941,
,,,,F,space,,,,,,,,,0,46,46,46,,,,,,,,,,,,,,,,,,,,,,,,,,,,,,,,,,244.49193620006554,244.49193620006554,244.79188140004408,space,1,0.3402539000380784,,,,,Anapaolaarcos2,001,2022-11-03_15h55.43.001,Trial go no go,2022.2.4,60.0287297451941,
,,,,M,space,,,,,,,,,0,47,47,36,,,,,,,,,,,,,,,,,,,,,,,,,,,,,,,,,,245.49198680010159,245.49198680010159,245.79204790003132,space,1,0.3824049000395462,,,,,Anapaolaarcos2,001,2022-11-03_15h55.43.001,Trial go no go,2022.2.4,60.0287297451941,
,,,,N,space,,,,,,,,,0,48,48,35,,,,,,,,,,,,,,,,,,,,,,,,,,,,,,,,,,246.49184480006807,246.49184480006807,246.79151510004885,space,1,0.3744311999762431,,,,,Anapaolaarcos2,001,2022-11-03_15h55.43.001,Trial go no go,2022.2.4,60.0287297451941,
,,,,X,none,,,,,,,,,0,49,49,9,,,,,,,,,,,,,,,,,,,,,,,,,,,,,,,,,,247.49145600001793,247.49145600001793,247.7912886000704,None,1,,,,,,Anapaolaarcos2,001,2022-11-03_15h55.43.001,Trial go no go,2022.2.4,60.0287297451941,
,,,,,,,,,,,,,,,,,,,,,,,,,,,,,,,,,,,,,,,,,,,,,,,,,,,,,,,,,248.49112270004116,248.97540580003988,space,2.4647191000403836,Anapaolaarcos2,001,2022-11-03_15h55.43.001,Trial go no go,2022.2.4,60.0287297451941,
