S1,S2,S3,S4,S5,S6,S7,S8,S9,S10,S11,S12,S13,S14,S15,S16,CorrAns3,CorrAns4,CorrAns5,CorrAns6,CorrAns7,CorrAns8,CorrAns9,CorrAns10,CorrAns11,CorrAns12,CorrAns13,CorrAns14,CorrAns15,CorrAns16,trials_2.thisRepN,trials_2.thisTrialN,trials_2.thisN,trials_2.thisIndex,trials.thisRepN,trials.thisTrialN,trials.thisN,trials.thisIndex,trials_3.thisRepN,trials_3.thisTrialN,trials_3.thisN,trials_3.thisIndex,Seq4_tr.started,recall_resp,key_resp_4.keys,key_resp_4.corr,key_resp_4.rt,text_go.started,key_resp_5.started,DS,key_resp2_2.keys,key_resp2_2.corr,key_resp2_2.rt,score,Forward WM score,B_DS,key_resp2_2B.keys,key_resp2_2B.corr,key_resp2_2B.rt,Backward WM score,participant,session,date,expName,psychopyVersion,frameRate,
8,1,6,0,0,0,0,0,0,0,0,0,0,0,0,0,"['8', '1', '6']",None,None,None,None,None,None,None,None,None,None,None,None,None,,,,,0,0,0,0,,,,,94.21291491598822,816,"['1', '2', '3', '4']",0,"[1.166620750213042, 1.5199985411018133, 1.8684447910636663, 2.21691916603595, 3.151377916103229]",98.8667839160189,98.8667839160189,3,"['8', '1', '6']",0,"[2.8315103331115097, 3.4130134580191225, 3.7540042500477284, 4.601058708038181]",1,,,,,,,SuryGlez,001,2022-10-27_11h10.01.881,DS_Adapt1L,2022.2.4,None,
4,7,2,9,0,0,0,0,0,0,0,0,0,0,0,0,"['4', '7', '2']","['4', '7', '2', '9']",None,None,None,None,None,None,None,None,None,None,None,None,,,,,0,1,1,1,,,,,,4729,,,,,,4,"['4', '7', '2', '9']",0,"[1.465743208071217, 1.896390249952674, 2.4080370829906315, 2.8884362501557916, 3.910772708011791]",1,,,,,,,SuryGlez,001,2022-10-27_11h10.01.881,DS_Adapt1L,2022.2.4,None,
6,9,1,7,2,0,0,0,0,0,0,0,0,0,0,0,"['6', '9', '1']","['6', '9', '1', '7']","['6', '9', '1', '7', '2']",None,None,None,None,None,None,None,None,None,None,None,,,,,0,2,2,2,,,,,,69172,,,,,,5,"['6', '9', '1', '7', '2']",0,"[1.836266417056322, 2.3059264170005918, 3.2017155420035124, 3.487831916892901, 5.163483917014673, 5.636180917033926]",1,,,,,,,SuryGlez,001,2022-10-27_11h10.01.881,DS_Adapt1L,2022.2.4,None,
7,9,4,1,8,2,0,0,0,0,0,0,0,0,0,0,"['7', '9', '4']","['7', '9', '4', '1']","['7', '9', '4', '1', '8']","['7', '9', '4', '1', '8', '2']",None,None,None,None,None,None,None,None,None,None,,,,,0,3,3,3,,,,,,71485,,,,,,6,"['7', '1', '4', '8', '5']",0,"[1.7474762499332428, 2.0393445829395205, 2.6931720410939306, 3.2134183330927044, 6.778682790929452, 7.559693375136703]",0,,,,,,,SuryGlez,001,2022-10-27_11h10.01.881,DS_Adapt1L,2022.2.4,None,
5,2,8,4,7,3,9,0,0,0,0,0,0,0,0,0,"['5', '2', '8']","['5', '2', '8', '4']","['5', '2', '8', '4', '7']","['5', '2', '8', '4', '7', '3']","['5', '2', '8', '4', '7', '3', '9']",None,None,None,None,None,None,None,None,None,,,,,0,4,4,4,,,,,,528473,,,,,,6,"['5', '2', '8', '4', '7', '3']",0,"[2.078435332980007, 2.457141916034743, 2.984487625071779, 3.6555800829082727, 4.160846125101671, 4.5459927909541875, 5.597057665931061]",1,,,,,,,SuryGlez,001,2022-10-27_11h10.01.881,DS_Adapt1L,2022.2.4,None,
2,5,1,7,4,9,3,8,0,0,0,0,0,0,0,0,"['2', '5', '1']","['2', '5', '1', '7']","['2', '5', '1', '7', '4']","['2', '5', '1', '7', '4', '9']","['2', '5', '1', '7', '4', '9', '3']","['2', '5', '1', '7', '4', '9', '3', '8']",None,None,None,None,None,None,None,None,,,,,0,5,5,5,,,,,,2517493,,,,,,7,"['2', '5', '1', '7', '4', '9', '3']",0,"[1.0959942501503974, 1.4654841250739992, 1.96556599996984, 2.290761834010482, 2.7431763340719044, 3.281421917025, 3.6837724591605365, 4.481014917138964]",1,,,,,,,SuryGlez,001,2022-10-27_11h10.01.881,DS_Adapt1L,2022.2.4,None,
6,2,5,8,3,9,4,1,7,0,0,0,0,0,0,0,"['6', '2', '5']","['6', '2', '5', '8']","['6', '2', '5', '8', '3']","['6', '2', '5', '8', '3', '9']","['6', '2', '5', '8', '3', '9', '4']","['6', '2', '5', '8', '3', '9', '4', '1']","['6', '2', '5', '8', '3', '9', '4', '1', '7']",None,None,None,None,None,None,None,,,,,0,6,6,6,,,,,,625983,,,,,,8,"['6', '2', '5', '9', '8', '3']",0,"[0.9985985839739442, 1.4633549170102924, 1.9181110421195626, 2.614087749971077, 3.9115214170888066, 4.3819155839737505, 5.930339459097013]",0,,,,,,,SuryGlez,001,2022-10-27_11h10.01.881,DS_Adapt1L,2022.2.4,None,
1,7,3,8,4,9,5,2,6,9,0,0,0,0,0,0,"['1', '7', '3']","['1', '7', '3', '8']","['1', '7', '3', '8', '4']","['1', '7', '3', '8', '4', '9']","['1', '7', '3', '8', '4', '9', '5']","['1', '7', '3', '8', '4', '9', '5', '2']","['1', '7', '3', '8', '4', '9', '5', '2', '6']","['1', '7', '3', '8', '4', '9', '5', '2', '6', '9']",None,None,None,None,None,None,,,,,0,7,7,7,,,,,,1738497,,,,,,8,"['1', '7', '3', '8', '4', '9', '7']",0,"[7.599983708001673, 7.601128207985312, 7.601305874995887, 7.6014814579393715, 7.601643665926531, 7.6017821659334, 7.601909624878317, 9.588440040824935]",0,,,,,,,SuryGlez,001,2022-10-27_11h10.01.881,DS_Adapt1L,2022.2.4,None,
4,9,6,2,5,8,1,7,3,7,4,0,0,0,0,0,"['4', '9', '6']","['4', '9', '6', '2']","['4', '9', '6', '2', '5']","['4', '9', '6', '2', '5', '8']","['4', '9', '6', '2', '5', '8', '1']","['4', '9', '6', '2', '5', '8', '1', '7']","['4', '9', '6', '2', '5', '8', '1', '7', '3']","['4', '9', '6', '2', '5', '8', '1', '7', '3', '7']","['4', '9', '6', '2', '5', '8', '1', '7', '3', '7', '4']",None,None,None,None,None,,,,,0,8,8,8,,,,,,486258,,,,,,7,"['4', '8', '6', '2', '5', '8']",0,"[1.9857992918696254, 2.5262124168220907, 4.806574249872938, 5.255601166980341, 5.9904113749507815, 7.207537584006786, 8.157087416853756]",0,,,,,,,SuryGlez,001,2022-10-27_11h10.01.881,DS_Adapt1L,2022.2.4,None,
8,4,1,7,3,6,2,5,9,1,6,3,0,0,0,0,"['8', '4', '1']","['8', '4', '1', '7']","['8', '4', '1', '7', '3']","['8', '4', '1', '7', '3', '6']","['8', '4', '1', '7', '3', '6', '2']","['8', '4', '1', '7', '3', '6', '2', '5']","['8', '4', '1', '7', '3', '6', '2', '5', '9']","['8', '4', '1', '7', '3', '6', '2', '5', '9', '1']","['8', '4', '1', '7', '3', '6', '2', '5', '9', '1', '6']","['8', '4', '1', '7', '3', '6', '2', '5', '9', '1', '6', '3']",None,None,None,None,,,,,0,9,9,9,,,,,,841736,,,,,,7,"['8', '4', '1', '7', '3', '6']",0,"[1.814179957844317, 3.3094362078700215, 3.7493774578906596, 4.031180541031063, 4.4704722908791155, 4.780463665956631, 5.919609332922846]",0,,,,,,,SuryGlez,001,2022-10-27_11h10.01.881,DS_Adapt1L,2022.2.4,None,
5,9,4,1,6,9,3,8,2,6,1,8,2,0,0,0,"['5', '9', '4']","['5', '9', '4', '1']","['5', '9', '4', '1', '6']","['5', '9', '4', '1', '6', '9']","['5', '9', '4', '1', '6', '9', '3']","['5', '9', '4', '1', '6', '9', '3', '8']","['5', '9', '4', '1', '6', '9', '3', '8', '2']","['5', '9', '4', '1', '6', '9', '3', '8', '2', '6']","['5', '9', '4', '1', '6', '9', '3', '8', '2', '6', '1']","['5', '9', '4', '1', '6', '9', '3', '8', '2', '6', '1', '8']","['5', '9', '4', '1', '6', '9', '3', '8', '2', '6', '1', '8', '2']",None,None,None,,,,,0,10,10,10,,,,,,594169,,,,,,6,"['5', '9', '4', '1', '6', '9']",0,"[1.8973462090361863, 2.3140295420307666, 3.8595415418967605, 4.2600118750706315, 4.792494291905314, 5.323832500027493, 6.098015958908945]",1,,,,,,,SuryGlez,001,2022-10-27_11h10.01.881,DS_Adapt1L,2022.2.4,None,
3,7,2,5,8,4,1,9,6,3,7,1,4,8,0,0,"['3', '7', '2']","['3', '7', '2', '5']","['3', '7', '2', '5', '8']","['3', '7', '2', '5', '8', '4']","['3', '7', '2', '5', '8', '4', '1']","['3', '7', '2', '5', '8', '4', '1', '9']","['3', '7', '2', '5', '8', '4', '1', '9', '6']","['3', '7', '2', '5', '8', '4', '1', '9', '6', '3']","['3', '7', '2', '5', '8', '4', '1', '9', '6', '3', '7']","['3', '7', '2', '5', '8', '4', '1', '9', '6', '3', '7', '1']","['3', '7', '2', '5', '8', '4', '1', '9', '6', '3', '7', '1', '4']","['3', '7', '2', '5', '8', '4', '1', '9', '6', '3', '7', '1', '4', '8']",None,None,,,,,0,11,11,11,,,,,,3725481,,,,,,7,"['3', '7', '2', '5', '4', '8', '1']",0,"[1.6649181249085814, 2.1382037908770144, 3.268482791027054, 3.605205958010629, 4.298572874860838, 4.705425499938428, 5.4838194160256535, 6.498133957851678]",0,,,,,,,SuryGlez,001,2022-10-27_11h10.01.881,DS_Adapt1L,2022.2.4,None,
9,4,8,3,7,1,5,2,6,3,9,1,6,2,7,0,"['9', '4', '8']","['9', '4', '8', '3']","['9', '4', '8', '3', '7']","['9', '4', '8', '3', '7', '1']","['9', '4', '8', '3', '7', '1', '5']","['9', '4', '8', '3', '7', '1', '5', '2']","['9', '4', '8', '3', '7', '1', '5', '2', '6']","['9', '4', '8', '3', '7', '1', '5', '2', '6', '3']","['9', '4', '8', '3', '7', '1', '5', '2', '6', '3', '9']","['9', '4', '8', '3', '7', '1', '5', '2', '6', '3', '9', '1']","['9', '4', '8', '3', '7', '1', '5', '2', '6', '3', '9', '1', '6']","['9', '4', '8', '3', '7', '1', '5', '2', '6', '3', '9', '1', '6', '2']","['9', '4', '8', '3', '7', '1', '5', '2', '6', '3', '9', '1', '6', '2', '7']",None,,,,,0,12,12,12,,,,,,94871,,,,,,7,"['9', '4', '8', '7', '1']",0,"[3.1538877920247614, 3.6499542919918895, 4.039709875127301, 5.231304334010929, 5.931819417048246, 6.8318497920408845]",0,,,,,,,SuryGlez,001,2022-10-27_11h10.01.881,DS_Adapt1L,2022.2.4,None,
1,5,9,4,7,3,8,2,6,2,7,3,6,1,5,8,"['1', '5', '9']","['1', '5', '9', '4']","['1', '5', '9', '4', '7']","['1', '5', '9', '4', '7', '3']","['1', '5', '9', '4', '7', '3', '8']","['1', '5', '9', '4', '7', '3', '8', '2']","['1', '5', '9', '4', '7', '3', '8', '2', '6']","['1', '5', '9', '4', '7', '3', '8', '2', '6', '2']","['1', '5', '9', '4', '7', '3', '8', '2', '6', '2', '7']","['1', '5', '9', '4', '7', '3', '8', '2', '6', '2', '7', '3']","['1', '5', '9', '4', '7', '3', '8', '2', '6', '2', '7', '3', '6']","['1', '5', '9', '4', '7', '3', '8', '2', '6', '2', '7', '3', '6', '1']","['1', '5', '9', '4', '7', '3', '8', '2', '6', '2', '7', '3', '6', '1', '5']","['1', '5', '9', '4', '7', '3', '8', '2', '6', '2', '7', '3', '6', '1', '5', '8']",,,,,0,13,13,13,,,,,,199473,,,,,,6,"['1', '9', '9', '4', '7', '3']",0,"[1.0843563340604305, 1.7483940001111478, 2.4574358339887112, 3.0234592920169234, 3.8711187089793384, 4.233109417138621, 5.035245709121227]",0,,,,,,,SuryGlez,001,2022-10-27_11h10.01.881,DS_Adapt1L,2022.2.4,None,
None,None,None,None,None,None,None,None,None,None,None,None,None,None,None,None,None,None,None,None,None,None,None,None,None,None,None,None,None,None,,,,,0,14,14,14,,,,,,159473,,,,,,6,"['1', '5', '9', '4', '7', '3']",0,"[0.9976443331688643, 1.4777163329999894, 1.9481179581489414, 2.475135707994923, 4.232863000128418, 4.594137167092413, 5.396436125040054]",0,,,,,,,SuryGlez,001,2022-10-27_11h10.01.881,DS_Adapt1L,2022.2.4,None,
1,5,9,0,0,0,0,0,0,0,0,0,0,0,0,0,"['9', '5', '1']",None,None,None,None,None,None,None,None,None,None,None,None,None,,,,,,,,,0,0,0,0,,951,,,,,,,,,,1,6.1000000000000005,3,"['9', '5', '1']",0,"[2.368533874861896, 2.724694874836132, 2.979213124839589, 4.350526708876714]",,SuryGlez,001,2022-10-27_11h10.01.881,DS_Adapt1L,2022.2.4,None,
4,7,3,8,0,0,0,0,0,0,0,0,0,0,0,0,"['3', '7', '4']","['8', '3', '7', '4']",None,None,None,None,None,None,None,None,None,None,None,None,,,,,,,,,0,1,1,1,,8374,,,,,,,,,,1,,4,"['8', '3', '7', '4']",0,"[4.084800541168079, 4.613857041113079, 5.304596833186224, 5.617176000028849, 6.297595500014722]",,SuryGlez,001,2022-10-27_11h10.01.881,DS_Adapt1L,2022.2.4,None,
2,6,1,7,3,0,0,0,0,0,0,0,0,0,0,0,"['1', '6', '2']","['7', '1', '6', '2']","['3', '7', '1', '6', '2']",None,None,None,None,None,None,None,None,None,None,None,,,,,,,,,0,2,2,2,,7162,,,,,,,,,,0,,5,"['7', '1', '6', '2']",0,"[2.629688125103712, 3.0635214161593467, 5.000774166081101, 5.336734000127763, 6.152178000193089]",,SuryGlez,001,2022-10-27_11h10.01.881,DS_Adapt1L,2022.2.4,None,
6,1,5,9,4,8,0,0,0,0,0,0,0,0,0,0,"['5', '1', '6']","['9', '5', '1', '6']","['4', '9', '5', '1', '6']","['8', '4', '9', '5', '1', '6']",None,None,None,None,None,None,None,None,None,None,,,,,,,,,0,3,3,3,,9516,,,,,,,,,,0,,5,"['9', '5', '1', '6']",0,"[4.600539916893467, 5.010408041998744, 5.900668709073216, 6.131139958975837, 7.190615958999842]",,SuryGlez,001,2022-10-27_11h10.01.881,DS_Adapt1L,2022.2.4,None,
3,7,1,5,2,6,9,0,0,0,0,0,0,0,0,0,"['1', '7', '3']","['5', '1', '7', '3']","['2', '5', '1', '7', '3']","['6', '2', '5', '1', '7', '3']","['9', '6', '2', '5', '1', '7', '3']",None,None,None,None,None,None,None,None,None,,,,,,,,,0,4,4,4,,5173,,,,,,,,,,1,,4,"['5', '1', '7', '3']",0,"[3.4563757500145584, 3.9061546670272946, 4.3982878748793155, 4.758483791956678, 5.3970409168396145]",,SuryGlez,001,2022-10-27_11h10.01.881,DS_Adapt1L,2022.2.4,None,
9,3,6,2,5,8,4,1,0,0,0,0,0,0,0,0,"['6', '3', '9']","['2', '6', '3', '9']","['5', '2', '6', '3', '9']","['8', '5', '2', '6', '3', '9']","['4', '8', '5', '2', '6', '3', '9']","['1', '4', '8', '5', '2', '6', '3', '9']",None,None,None,None,None,None,None,None,,,,,,,,,0,5,5,5,,52639,,,,,,,,,,1,,5,"['5', '2', '6', '3', '9']",0,"[5.438677917001769, 9.331504666944966, 9.931128457887098, 13.11682074982673, 13.547072374960408, 15.240944624878466]",,SuryGlez,001,2022-10-27_11h10.01.881,DS_Adapt1L,2022.2.4,None,
1,7,4,9,5,8,3,6,2,0,0,0,0,0,0,0,"['4', '7', '1']","['9', '4', '7', '1']","['5', '9', '4', '7', '1']","['8', '5', '9', '4', '7', '1']","['3', '8', '5', '9', '4', '7', '1']","['6', '3', '8', '5', '9', '4', '7', '1']","['2', '6', '3', '8', '5', '9', '4', '7', '1']",None,None,None,None,None,None,None,,,,,,,,,0,6,6,6,,859471,,,,,,,,,,1,,6,"['8', '5', '9', '4', '7', '1']",0,"[2.6270252908580005, 3.0701351249590516, 5.8316711250226945, 6.265785082941875, 6.7532148328609765, 7.189785624854267, 8.59749533305876]",,SuryGlez,001,2022-10-27_11h10.01.881,DS_Adapt1L,2022.2.4,None,
8,2,6,3,7,1,4,9,5,2,0,0,0,0,0,0,"['6', '2', '8']","['3', '6', '2', '8']","['7', '3', '6', '2', '8']","['1', '7', '3', '6', '2', '8']","['4', '1', '7', '3', '6', '2', '8']","['9', '4', '1', '7', '3', '6', '2', '8']","['5', '9', '4', '1', '7', '3', '6', '2', '8']","['2', '5', '9', '4', '1', '7', '3', '6', '2', '8']",None,None,None,None,None,None,,,,,,,,,0,7,7,7,,4722836,,,,,,,,,,0,,7,"['4', '7', '2', '2', '8', '3', '6']",0,"[2.314742958173156, 4.132055833004415, 6.964963167207316, 9.146720208227634, 9.685710958205163, 11.603428833186626, 11.909625250147656, 12.754388458095491]",,SuryGlez,001,2022-10-27_11h10.01.881,DS_Adapt1L,2022.2.4,None,
3,8,1,9,6,2,5,8,4,7,1,0,0,0,0,0,"['1', '8', '3']","['9', '1', '8', '3']","['6', '9', '1', '8', '3']","['2', '6', '9', '1', '8', '3']","['5', '2', '6', '9', '1', '8', '3']","['8', '5', '2', '6', '9', '1', '8', '3']","['4', '8', '5', '2', '6', '9', '1', '8', '3']","['7', '4', '8', '5', '2', '6', '9', '1', '8', '3']","['1', '7', '4', '8', '5', '2', '6', '9', '1', '8', '3']",None,None,None,None,None,,,,,,,,,0,8,8,8,,78326,,,,,,,,,,0,,7,"['7', '8', '3', '2', '6']",0,"[5.653823582921177, 8.596600708086044, 9.897743625100702, 11.747341041918844, 12.009229457937181, 12.72108545806259]",,SuryGlez,001,2022-10-27_11h10.01.881,DS_Adapt1L,2022.2.4,None,
9,5,1,4,8,2,6,3,7,3,1,9,0,0,0,0,"['1', '5', '9']","['4', '1', '5', '9']","['8', '4', '1', '5', '9']","['2', '8', '4', '1', '5', '9']","['6', '2', '8', '4', '1', '5', '9']","['3', '6', '2', '8', '4', '1', '5', '9']","['7', '3', '6', '2', '8', '4', '1', '5', '9']","['3', '7', '3', '6', '2', '8', '4', '1', '5', '9']","['1', '3', '7', '3', '6', '2', '8', '4', '1', '5', '9']","['9', '1', '3', '7', '3', '6', '2', '8', '4', '1', '5', '9']",None,None,None,None,,,,,,,,,0,9,9,9,,284128,,,,,,,,,,0,,6,"['2', '8', '4', '1', '2', '8']",0,"[3.698593582957983, 4.136922416044399, 5.568009875016287, 5.934004666050896, 11.09785341611132, 11.39286704105325, 12.45202991599217]",,SuryGlez,001,2022-10-27_11h10.01.881,DS_Adapt1L,2022.2.4,None,
5,8,4,1,9,2,7,3,6,2,8,1,6,0,0,0,"['4', '8', '5']","['1', '4', '8', '5']","['9', '1', '4', '8', '5']","['2', '9', '1', '4', '8', '5']","['7', '2', '9', '1', '4', '8', '5']","['3', '7', '2', '9', '1', '4', '8', '5']","['6', '3', '7', '2', '9', '1', '4', '8', '5']","['2', '6', '3', '7', '2', '9', '1', '4', '8', '5']","['8', '2', '6', '3', '7', '2', '9', '1', '4', '8', '5']","['1', '8', '2', '6', '3', '7', '2', '9', '1', '4', '8', '5']","['6', '1', '8', '2', '6', '3', '7', '2', '9', '1', '4', '8', '5']",None,None,None,,,,,,,,,0,10,10,10,,298514,,,,,,,,,,0,,6,"['2', '9', '8', '5', '1', '4']",0,"[3.0838481669779867, 3.6034222501330078, 6.373197000008076, 6.69799091713503, 11.698194000171497, 12.165622209198773, 12.940619917120785]",,SuryGlez,001,2022-10-27_11h10.01.881,DS_Adapt1L,2022.2.4,None,
1,6,9,4,7,2,5,8,3,9,4,7,2,6,0,0,"['9', '6', '1']","['4', '9', '6', '1']","['7', '4', '9', '6', '1']","['2', '7', '4', '9', '6', '1']","['5', '2', '7', '4', '9', '6', '1']","['8', '5', '2', '7', '4', '9', '6', '1']","['3', '8', '5', '2', '7', '4', '9', '6', '1']","['9', '3', '8', '5', '2', '7', '4', '9', '6', '1']","['4', '9', '3', '8', '5', '2', '7', '4', '9', '6', '1']","['7', '4', '9', '3', '8', '5', '2', '7', '4', '9', '6', '1']","['2', '7', '4', '9', '3', '8', '5', '2', '7', '4', '9', '6', '1']","['6', '2', '7', '4', '9', '3', '8', '5', '2', '7', '4', '9', '6', '1']",None,None,,,,,,,,,0,11,11,11,,74961,,,,,,,,,,1,,5,"['7', '4', '9', '6', '1']",0,"[3.418049374828115, 4.713347499957308, 5.4287999998778105, 6.824938541976735, 7.233948832843453, 9.196214374853298]",,SuryGlez,001,2022-10-27_11h10.01.881,DS_Adapt1L,2022.2.4,None,
2,7,4,9,1,6,3,8,5,9,4,1,7,2,8,0,"['4', '7', '2']","['9', '4', '7', '2']","['1', '9', '4', '7', '2']","['6', '1', '9', '4', '7', '2']","['3', '6', '1', '9', '4', '7', '2']","['8', '3', '6', '1', '9', '4', '7', '2']","['5', '8', '3', '6', '1', '9', '4', '7', '2']","['9', '5', '8', '3', '6', '1', '9', '4', '7', '2']","['4', '9', '5', '8', '3', '6', '1', '9', '4', '7', '2']","['1', '4', '9', '5', '8', '3', '6', '1', '9', '4', '7', '2']","['7', '1', '4', '9', '5', '8', '3', '6', '1', '9', '4', '7', '2']","['2', '7', '1', '4', '9', '5', '8', '3', '6', '1', '9', '4', '7', '2']","['8', '2', '7', '1', '4', '9', '5', '8', '3', '6', '1', '9', '4', '7', '2']",None,,,,,,,,,0,12,12,12,,69472,,,,,,,,,,0,,6,"['6', '9', '4', '7', '2']",0,"[3.3018912500701845, 6.020770500181243, 6.514706666115671, 7.837952583096921, 8.231428958009928, 10.100087083177641]",,SuryGlez,001,2022-10-27_11h10.01.881,DS_Adapt1L,2022.2.4,None,
7,1,4,8,2,6,3,9,5,8,5,9,1,4,7,2,"['4', '1', '7']","['8', '4', '1', '7']","['2', '8', '4', '1', '7']","['6', '2', '8', '4', '1', '7']","['3', '6', '2', '8', '4', '1', '7']","['9', '3', '6', '2', '8', '4', '1', '7']","['5', '9', '3', '6', '2', '8', '4', '1', '7']","['8', '5', '9', '3', '6', '2', '8', '4', '1', '7']","['5', '8', '5', '9', '3', '6', '2', '8', '4', '1', '7']","['9', '5', '8', '5', '9', '3', '6', '2', '8', '4', '1', '7']","['1', '9', '5', '8', '5', '9', '3', '6', '2', '8', '4', '1', '7']","['4', '1', '9', '5', '8', '5', '9', '3', '6', '2', '8', '4', '1', '7']","['7', '4', '1', '9', '5', '8', '5', '9', '3', '6', '2', '8', '4', '1', '7']","['2', '7', '4', '1', '9', '5', '8', '5', '9', '3', '6', '2', '8', '4', '1', '7']",,,,,,,,,0,13,13,13,,628462,,,,,,,,,,0,,6,"['6', '2', '8', '4', '6', '2']",0,"[2.7024570419453084, 3.081461791880429, 5.631257832981646, 6.174917291849852, 8.014465417014435, 8.631249916972592, 9.536937667056918]",,SuryGlez,001,2022-10-27_11h10.01.881,DS_Adapt1L,2022.2.4,None,
,,,,,,,,,,,,,,,,,,,,,,,,,,,,,,,,,,,,,,,,,,,,,,,,,,,,,,,,,,,5.2,,,,,,,
