stimulus_prac1,corrAns_prac1,stimulus_test1,corrAns_test1,stimulus_test2,corrAns_test2,prac_trials.thisRepN,prac_trials.thisTrialN,prac_trials.thisN,prac_trials.thisIndex,test1trial.thisRepN,test1trial.thisTrialN,test1trial.thisN,test1trial.thisIndex,test2trial.thisRepN,test2trial.thisTrialN,test2trial.thisN,test2trial.thisIndex,image_welcome.started,resp_Welcome.started,resp_Welcome.keys,resp_Welcome.rt,resp_Instr_Intro.started,image_Instr_Intro.started,resp_Instr_Intro.keys,resp_Instr_Intro.rt,resp_Instr_Prac1.started,image_Instr_Prac1.started,resp_Instr_Prac1.keys,resp_Instr_Prac1.rt,text_trial_Prac1.started,resp_trial_Prac1.started,text_trial_Prac1.stopped,resp_trial_Prac1.keys,resp_trial_Prac1.corr,resp_trial_Prac1.rt,text_Feedback_Prac1.started,resp_trial_Prac1.stopped,text_Feedback_Prac1.stopped,resp_Instr_Test1.started,image_Instr_Test1.started,resp_Instr_Test1.keys,resp_Instr_Test1.rt,text_trial_Test1.started,resp_trial_Test1.started,text_trial_Test1.stopped,resp_trial_Test1.keys,resp_trial_Test1.corr,resp_trial_Test1.rt,resp_trial_Test1.stopped,resp_Instr_Test2.started,image_Instr_Test2.started,resp_Instr_Test2.keys,resp_Instr_Test2.rt,text_trial_Test2.started,key_resp.started,text_trial_Test2.stopped,key_resp.keys,key_resp.corr,key_resp.rt,resp_theEnd.started,image_theEnd.started,resp_theEnd.keys,resp_theEnd.rt,participant,session,date,expName,psychopyVersion,frameRate,
,,,,,,,,,,,,,,,,,,12.570233333000942,12.570233333000942,space,19.734056748999137,,,,,,,,,,,,,,,,,,,,,,,,,,,,,,,,,,,,,,,,,,,VianyMuñoz2,001,2022-11-03_22h38.00.906,Trial go no go,2022.2.4,59.801861482482806,
,,,,,,,,,,,,,,,,,,,,,,32.34794987500027,32.84707420800078,space,8.629890415999398,,,,,,,,,,,,,,,,,,,,,,,,,,,,,,,,,,,,,,,VianyMuñoz2,001,2022-11-03_22h38.00.906,Trial go no go,2022.2.4,59.801861482482806,
,,,,,,,,,,,,,,,,,,,,,,,,,,40.99675233299968,41.49597429200003,space,1.2626062909985194,,,,,,,,,,,,,,,,,,,,,,,,,,,,,,,,,,,VianyMuñoz2,001,2022-11-03_22h38.00.906,Trial go no go,2022.2.4,59.801861482482806,
X,space,,,,,0,0,0,5,,,,,,,,,,,,,,,,,,,,,42.32591325000067,42.32591325000067,42.92951366700072,space,1,0.7386343739999575,44.298332958000174,,,,,,,,,,,,,,,,,,,,,,,,,,,,VianyMuñoz2,001,2022-11-03_22h38.00.906,Trial go no go,2022.2.4,59.801861482482806,
V,none,,,,,0,1,1,9,,,,,,,,,,,,,,,,,,,,,44.99599500000113,44.99599500000113,45.59611849999965,None,1,,46.995892958000695,,,,,,,,,,,,,,,,,,,,,,,,,,,,VianyMuñoz2,001,2022-11-03_22h38.00.906,Trial go no go,2022.2.4,59.801861482482806,
X,space,,,,,0,2,2,2,,,,,,,,,,,,,,,,,,,,,47.696016957999746,47.696016957999746,48.29657600000064,space,1,0.6132343740009674,49.696337625000524,,,,,,,,,,,,,,,,,,,,,,,,,,,,VianyMuñoz2,001,2022-11-03_22h38.00.906,Trial go no go,2022.2.4,59.801861482482806,
X,space,,,,,0,3,3,0,,,,,,,,,,,,,,,,,,,,,50.396196042000156,50.396196042000156,50.99661887500042,space,1,0.6812727079995966,52.396570417000476,,,,,,,,,,,,,,,,,,,,,,,,,,,,VianyMuñoz2,001,2022-11-03_22h38.00.906,Trial go no go,2022.2.4,59.801861482482806,
X,space,,,,,0,4,4,11,,,,,,,,,,,,,,,,,,,,,53.097302500000296,53.097302500000296,53.69664895800088,space,1,0.43852570800117974,55.09653262500069,,,,,,,,,,,,,,,,,,,,,,,,,,,,VianyMuñoz2,001,2022-11-03_22h38.00.906,Trial go no go,2022.2.4,59.801861482482806,
X,space,,,,,0,5,5,12,,,,,,,,,,,,,,,,,,,,,55.79627858300046,55.79627858300046,56.39634337499956,space,1,0.4617545830005838,57.79639195799973,,,,,,,,,,,,,,,,,,,,,,,,,,,,VianyMuñoz2,001,2022-11-03_22h38.00.906,Trial go no go,2022.2.4,59.801861482482806,
X,space,,,,,0,6,6,10,,,,,,,,,,,,,,,,,,,,,58.49645062499985,58.49645062499985,59.096705375000965,space,1,0.528455749998102,60.49691904199972,,,,,,,,,,,,,,,,,,,,,,,,,,,,VianyMuñoz2,001,2022-11-03_22h38.00.906,Trial go no go,2022.2.4,59.801861482482806,
X,space,,,,,0,7,7,6,,,,,,,,,,,,,,,,,,,,,61.196701167000356,61.196701167000356,61.79714216700086,space,1,0.595197915999961,63.19680804200107,,,,,,,,,,,,,,,,,,,,,,,,,,,,VianyMuñoz2,001,2022-11-03_22h38.00.906,Trial go no go,2022.2.4,59.801861482482806,
X,space,,,,,0,8,8,7,,,,,,,,,,,,,,,,,,,,,63.89695670800029,63.89695670800029,64.49685062500066,space,1,0.3668657499983965,65.89709541699995,,,,,,,,,,,,,,,,,,,,,,,,,,,,VianyMuñoz2,001,2022-11-03_22h38.00.906,Trial go no go,2022.2.4,59.801861482482806,
X,space,,,,,0,9,9,8,,,,,,,,,,,,,,,,,,,,,66.59666204200039,66.59666204200039,67.19663379200028,space,1,0.5343987909982388,68.59717979200104,,,,,,,,,,,,,,,,,,,,,,,,,,,,VianyMuñoz2,001,2022-11-03_22h38.00.906,Trial go no go,2022.2.4,59.801861482482806,
X,space,,,,,0,10,10,3,,,,,,,,,,,,,,,,,,,,,69.2970470830005,69.2970470830005,69.89680816700093,space,1,0.4317911660000391,71.29705124999964,,,,,,,,,,,,,,,,,,,,,,,,,,,,VianyMuñoz2,001,2022-11-03_22h38.00.906,Trial go no go,2022.2.4,59.801861482482806,
X,space,,,,,0,11,11,13,,,,,,,,,,,,,,,,,,,,,71.98041791700052,71.98041791700052,72.58121366700107,space,1,0.4871937079988129,73.98042449999957,73.98042449999957,74.68014191700058,,,,,,,,,,,,,,,,,,,,,,,,,,VianyMuñoz2,001,2022-11-03_22h38.00.906,Trial go no go,2022.2.4,59.801861482482806,
K,none,,,,,0,12,12,14,,,,,,,,,,,,,,,,,,,,,74.68014191700058,74.68014191700058,75.28034200000002,None,1,,76.68060474999947,76.68060474999947,77.38047825000103,,,,,,,,,,,,,,,,,,,,,,,,,,VianyMuñoz2,001,2022-11-03_22h38.00.906,Trial go no go,2022.2.4,59.801861482482806,
W,none,,,,,0,13,13,4,,,,,,,,,,,,,,,,,,,,,77.38047825000103,77.38047825000103,77.98035229200104,space,0,0.5317594989992358,79.3806557500011,,80.08026387500104,,,,,,,,,,,,,,,,,,,,,,,,,,VianyMuñoz2,001,2022-11-03_22h38.00.906,Trial go no go,2022.2.4,59.801861482482806,
X,space,,,,,0,14,14,1,,,,,,,,,,,,,,,,,,,,,80.08026387500104,80.08026387500104,80.68131695800002,space,1,0.627215165999587,82.08072820800044,,82.78041441700043,,,,,,,,,,,,,,,,,,,,,,,,,,VianyMuñoz2,001,2022-11-03_22h38.00.906,Trial go no go,2022.2.4,59.801861482482806,
,,,,,,,,,,,,,,,,,,,,,,,,,,,,,,,,,,,,,,,82.78041441700043,83.26369904199964,space,1.2729751659990143,,,,,,,,,,,,,,,,,,,,,,VianyMuñoz2,001,2022-11-03_22h38.00.906,Trial go no go,2022.2.4,59.801861482482806,
,,X,space,,,,,,,0,0,0,40,,,,,,,,,,,,,,,,,,,,,,,,,,,,,,84.09424525000031,84.09424525000031,84.39757695800108,None,0,,,,,,,,,,,,,,,,,VianyMuñoz2,001,2022-11-03_22h38.00.906,Trial go no go,2022.2.4,59.801861482482806,
,,X,space,,,,,,,0,1,1,28,,,,,,,,,,,,,,,,,,,,,,,,,,,,,,85.0970661249994,85.0970661249994,85.39785891700012,space,1,0.2855574990007881,,,,,,,,,,,,,,,,VianyMuñoz2,001,2022-11-03_22h38.00.906,Trial go no go,2022.2.4,59.801861482482806,
,,E,none,,,,,,,0,2,2,49,,,,,,,,,,,,,,,,,,,,,,,,,,,,,,86.09735945800094,86.09735945800094,86.39739754199945,None,1,,,,,,,,,,,,,,,,,VianyMuñoz2,001,2022-11-03_22h38.00.906,Trial go no go,2022.2.4,59.801861482482806,
,,X,space,,,,,,,0,3,3,0,,,,,,,,,,,,,,,,,,,,,,,,,,,,,,87.09731412499968,87.09731412499968,87.39726362500005,space,1,0.4200275410003087,,,,,,,,,,,,,,,,VianyMuñoz2,001,2022-11-03_22h38.00.906,Trial go no go,2022.2.4,59.801861482482806,
,,X,space,,,,,,,0,4,4,5,,,,,,,,,,,,,,,,,,,,,,,,,,,,,,88.09795275000033,88.09795275000033,88.39749779200065,space,1,0.4199009579988342,,,,,,,,,,,,,,,,VianyMuñoz2,001,2022-11-03_22h38.00.906,Trial go no go,2022.2.4,59.801861482482806,
,,X,space,,,,,,,0,5,5,23,,,,,,,,,,,,,,,,,,,,,,,,,,,,,,89.097344875001,89.097344875001,89.39765541700035,space,1,0.42493899899818643,,,,,,,,,,,,,,,,VianyMuñoz2,001,2022-11-03_22h38.00.906,Trial go no go,2022.2.4,59.801861482482806,
,,F,none,,,,,,,0,6,6,44,,,,,,,,,,,,,,,,,,,,,,,,,,,,,,90.09717129199998,90.09717129199998,90.39746600000035,None,1,,,,,,,,,,,,,,,,,VianyMuñoz2,001,2022-11-03_22h38.00.906,Trial go no go,2022.2.4,59.801861482482806,
,,M,none,,,,,,,0,7,7,39,,,,,,,,,,,,,,,,,,,,,,,,,,,,,,91.09763379200012,91.09763379200012,91.39766675000101,None,1,,,,,,,,,,,,,,,,,VianyMuñoz2,001,2022-11-03_22h38.00.906,Trial go no go,2022.2.4,59.801861482482806,
,,X,space,,,,,,,0,8,8,22,,,,,,,,,,,,,,,,,,,,,,,,,,,,,,92.09751633300039,92.09751633300039,92.3973103749995,space,1,0.4624220410005364,,,,,,,,,,,,,,,,VianyMuñoz2,001,2022-11-03_22h38.00.906,Trial go no go,2022.2.4,59.801861482482806,
,,X,space,,,,,,,0,9,9,10,,,,,,,,,,,,,,,,,,,,,,,,,,,,,,93.09784483300064,93.09784483300064,93.39765595800054,space,1,0.4031825000001845,,,,,,,,,,,,,,,,VianyMuñoz2,001,2022-11-03_22h38.00.906,Trial go no go,2022.2.4,59.801861482482806,
,,X,space,,,,,,,0,10,10,18,,,,,,,,,,,,,,,,,,,,,,,,,,,,,,94.09747479200087,94.09747479200087,94.39746708299936,space,1,0.3542481249987759,,,,,,,,,,,,,,,,VianyMuñoz2,001,2022-11-03_22h38.00.906,Trial go no go,2022.2.4,59.801861482482806,
,,V,none,,,,,,,0,11,11,4,,,,,,,,,,,,,,,,,,,,,,,,,,,,,,95.09799616700002,95.09799616700002,95.39827262499966,space,0,0.28163904100074433,,,,,,,,,,,,,,,,VianyMuñoz2,001,2022-11-03_22h38.00.906,Trial go no go,2022.2.4,59.801861482482806,
,,X,space,,,,,,,0,12,12,16,,,,,,,,,,,,,,,,,,,,,,,,,,,,,,96.09744620799938,96.09744620799938,96.39766733299984,space,1,0.3190271669991489,,,,,,,,,,,,,,,,VianyMuñoz2,001,2022-11-03_22h38.00.906,Trial go no go,2022.2.4,59.801861482482806,
,,X,space,,,,,,,0,13,13,36,,,,,,,,,,,,,,,,,,,,,,,,,,,,,,97.09747066700038,97.09747066700038,97.39870670799974,space,1,0.2849144999981945,,,,,,,,,,,,,,,,VianyMuñoz2,001,2022-11-03_22h38.00.906,Trial go no go,2022.2.4,59.801861482482806,
,,X,space,,,,,,,0,14,14,31,,,,,,,,,,,,,,,,,,,,,,,,,,,,,,98.09799408300023,98.09799408300023,98.3984432920006,space,1,0.2835713749991555,,,,,,,,,,,,,,,,VianyMuñoz2,001,2022-11-03_22h38.00.906,Trial go no go,2022.2.4,59.801861482482806,
,,X,space,,,,,,,0,15,15,17,,,,,,,,,,,,,,,,,,,,,,,,,,,,,,99.09741570799997,99.09741570799997,99.3974476250005,space,1,0.3337377909992938,,,,,,,,,,,,,,,,VianyMuñoz2,001,2022-11-03_22h38.00.906,Trial go no go,2022.2.4,59.801861482482806,
,,X,space,,,,,,,0,16,16,45,,,,,,,,,,,,,,,,,,,,,,,,,,,,,,100.09746450000057,100.09746450000057,100.39728545800062,space,1,0.338288499000555,,,,,,,,,,,,,,,,VianyMuñoz2,001,2022-11-03_22h38.00.906,Trial go no go,2022.2.4,59.801861482482806,
,,X,space,,,,,,,0,17,17,20,,,,,,,,,,,,,,,,,,,,,,,,,,,,,,101.09772337499999,101.09772337499999,101.39778129200022,space,1,0.32346208299895807,,,,,,,,,,,,,,,,VianyMuñoz2,001,2022-11-03_22h38.00.906,Trial go no go,2022.2.4,59.801861482482806,
,,H,none,,,,,,,0,18,18,24,,,,,,,,,,,,,,,,,,,,,,,,,,,,,,102.09770454200043,102.09770454200043,102.3978915000007,None,1,,,,,,,,,,,,,,,,,VianyMuñoz2,001,2022-11-03_22h38.00.906,Trial go no go,2022.2.4,59.801861482482806,
,,X,space,,,,,,,0,19,19,42,,,,,,,,,,,,,,,,,,,,,,,,,,,,,,103.09794366700044,103.09794366700044,103.3975191669997,space,1,0.8005065409979579,,,,,,,,,,,,,,,,VianyMuñoz2,001,2022-11-03_22h38.00.906,Trial go no go,2022.2.4,59.801861482482806,
,,Y,none,,,,,,,0,20,20,14,,,,,,,,,,,,,,,,,,,,,,,,,,,,,,104.09763050000038,104.09763050000038,104.39768537500095,None,1,,,,,,,,,,,,,,,,,VianyMuñoz2,001,2022-11-03_22h38.00.906,Trial go no go,2022.2.4,59.801861482482806,
,,N,none,,,,,,,0,21,21,34,,,,,,,,,,,,,,,,,,,,,,,,,,,,,,105.09775233300024,105.09775233300024,105.39783608300058,None,1,,,,,,,,,,,,,,,,,VianyMuñoz2,001,2022-11-03_22h38.00.906,Trial go no go,2022.2.4,59.801861482482806,
,,X,space,,,,,,,0,22,22,3,,,,,,,,,,,,,,,,,,,,,,,,,,,,,,106.09793200000058,106.09793200000058,106.39769049999995,space,1,0.32268337399909797,,,,,,,,,,,,,,,,VianyMuñoz2,001,2022-11-03_22h38.00.906,Trial go no go,2022.2.4,59.801861482482806,
,,X,space,,,,,,,0,23,23,43,,,,,,,,,,,,,,,,,,,,,,,,,,,,,,107.0979142920005,107.0979142920005,107.39770237499943,space,1,0.4738562499987893,,,,,,,,,,,,,,,,VianyMuñoz2,001,2022-11-03_22h38.00.906,Trial go no go,2022.2.4,59.801861482482806,
,,X,space,,,,,,,0,24,24,1,,,,,,,,,,,,,,,,,,,,,,,,,,,,,,108.09780624999985,108.09780624999985,108.39769966700078,space,1,0.2706947079987003,,,,,,,,,,,,,,,,VianyMuñoz2,001,2022-11-03_22h38.00.906,Trial go no go,2022.2.4,59.801861482482806,
,,X,space,,,,,,,0,25,25,27,,,,,,,,,,,,,,,,,,,,,,,,,,,,,,109.0984274170005,109.0984274170005,109.39846383300028,space,1,0.2868016659995192,,,,,,,,,,,,,,,,VianyMuñoz2,001,2022-11-03_22h38.00.906,Trial go no go,2022.2.4,59.801861482482806,
,,X,space,,,,,,,0,26,26,35,,,,,,,,,,,,,,,,,,,,,,,,,,,,,,110.09795329200097,110.09795329200097,110.39801554199948,space,1,0.3285563329991419,,,,,,,,,,,,,,,,VianyMuñoz2,001,2022-11-03_22h38.00.906,Trial go no go,2022.2.4,59.801861482482806,
,,X,space,,,,,,,0,27,27,37,,,,,,,,,,,,,,,,,,,,,,,,,,,,,,111.09816958299962,111.09816958299962,111.39821137500076,space,1,0.3151235000004817,,,,,,,,,,,,,,,,VianyMuñoz2,001,2022-11-03_22h38.00.906,Trial go no go,2022.2.4,59.801861482482806,
,,X,space,,,,,,,0,28,28,41,,,,,,,,,,,,,,,,,,,,,,,,,,,,,,112.09788475000096,112.09788475000096,112.39784129200052,space,1,0.3304298330003803,,,,,,,,,,,,,,,,VianyMuñoz2,001,2022-11-03_22h38.00.906,Trial go no go,2022.2.4,59.801861482482806,
,,X,space,,,,,,,0,29,29,38,,,,,,,,,,,,,,,,,,,,,,,,,,,,,,113.09811020800043,113.09811020800043,113.39813458299977,space,1,0.3757567079992441,,,,,,,,,,,,,,,,VianyMuñoz2,001,2022-11-03_22h38.00.906,Trial go no go,2022.2.4,59.801861482482806,
,,X,space,,,,,,,0,30,30,25,,,,,,,,,,,,,,,,,,,,,,,,,,,,,,114.09823029200015,114.09823029200015,114.3978507920001,space,1,0.3816380409989506,,,,,,,,,,,,,,,,VianyMuñoz2,001,2022-11-03_22h38.00.906,Trial go no go,2022.2.4,59.801861482482806,
,,X,space,,,,,,,0,31,31,15,,,,,,,,,,,,,,,,,,,,,,,,,,,,,,115.09789754200028,115.09789754200028,115.39781670800039,space,1,0.31702054100060195,,,,,,,,,,,,,,,,VianyMuñoz2,001,2022-11-03_22h38.00.906,Trial go no go,2022.2.4,59.801861482482806,
,,W,none,,,,,,,0,32,32,9,,,,,,,,,,,,,,,,,,,,,,,,,,,,,,116.09849091700016,116.09849091700016,116.39787799999976,None,1,,,,,,,,,,,,,,,,,VianyMuñoz2,001,2022-11-03_22h38.00.906,Trial go no go,2022.2.4,59.801861482482806,
,,X,space,,,,,,,0,33,33,2,,,,,,,,,,,,,,,,,,,,,,,,,,,,,,117.09809720799967,117.09809720799967,117.39811225000085,space,1,0.6759339169984742,,,,,,,,,,,,,,,,VianyMuñoz2,001,2022-11-03_22h38.00.906,Trial go no go,2022.2.4,59.801861482482806,
,,T,none,,,,,,,0,34,34,29,,,,,,,,,,,,,,,,,,,,,,,,,,,,,,118.09831537500031,118.09831537500031,118.39824645800036,None,1,,,,,,,,,,,,,,,,,VianyMuñoz2,001,2022-11-03_22h38.00.906,Trial go no go,2022.2.4,59.801861482482806,
,,X,space,,,,,,,0,35,35,46,,,,,,,,,,,,,,,,,,,,,,,,,,,,,,119.09797170800084,119.09797170800084,119.39827458299987,space,1,0.3482300830000895,,,,,,,,,,,,,,,,VianyMuñoz2,001,2022-11-03_22h38.00.906,Trial go no go,2022.2.4,59.801861482482806,
,,X,space,,,,,,,0,36,36,11,,,,,,,,,,,,,,,,,,,,,,,,,,,,,,120.09830620799949,120.09830620799949,120.39802079199944,space,1,0.4820525830000406,,,,,,,,,,,,,,,,VianyMuñoz2,001,2022-11-03_22h38.00.906,Trial go no go,2022.2.4,59.801861482482806,
,,X,space,,,,,,,0,37,37,7,,,,,,,,,,,,,,,,,,,,,,,,,,,,,,121.09831620800105,121.09831620800105,121.39836079199995,space,1,0.3148391669983539,,,,,,,,,,,,,,,,VianyMuñoz2,001,2022-11-03_22h38.00.906,Trial go no go,2022.2.4,59.801861482482806,
,,X,space,,,,,,,0,38,38,47,,,,,,,,,,,,,,,,,,,,,,,,,,,,,,122.08142595800018,122.08142595800018,122.38183004200073,space,1,0.3256455829996412,123.08156279200011,,,,,,,,,,,,,,,VianyMuñoz2,001,2022-11-03_22h38.00.906,Trial go no go,2022.2.4,59.801861482482806,
,,X,space,,,,,,,0,39,39,12,,,,,,,,,,,,,,,,,,,,,,,,,,,,,,123.08156279200011,123.08156279200011,123.38161058300102,space,1,0.3003256239990151,124.08184933300072,,,,,,,,,,,,,,,VianyMuñoz2,001,2022-11-03_22h38.00.906,Trial go no go,2022.2.4,59.801861482482806,
,,X,space,,,,,,,0,40,40,6,,,,,,,,,,,,,,,,,,,,,,,,,,,,,,124.08184933300072,124.08184933300072,124.38221208300092,space,1,0.39927891600018484,125.08175691699944,,,,,,,,,,,,,,,VianyMuñoz2,001,2022-11-03_22h38.00.906,Trial go no go,2022.2.4,59.801861482482806,
,,X,space,,,,,,,0,41,41,21,,,,,,,,,,,,,,,,,,,,,,,,,,,,,,125.08175691699944,125.08175691699944,125.38168612499976,space,1,0.3589749999991909,126.0817891250008,,,,,,,,,,,,,,,VianyMuñoz2,001,2022-11-03_22h38.00.906,Trial go no go,2022.2.4,59.801861482482806,
,,X,space,,,,,,,0,42,42,13,,,,,,,,,,,,,,,,,,,,,,,,,,,,,,126.0817891250008,126.0817891250008,126.3818656250005,space,1,0.3003488329995889,127.08172700000068,,,,,,,,,,,,,,,VianyMuñoz2,001,2022-11-03_22h38.00.906,Trial go no go,2022.2.4,59.801861482482806,
,,X,space,,,,,,,0,43,43,26,,,,,,,,,,,,,,,,,,,,,,,,,,,,,,127.08172700000068,127.08172700000068,127.38165020800079,space,1,0.32440904099894396,128.0816060420002,,,,,,,,,,,,,,,VianyMuñoz2,001,2022-11-03_22h38.00.906,Trial go no go,2022.2.4,59.801861482482806,
,,K,none,,,,,,,0,44,44,19,,,,,,,,,,,,,,,,,,,,,,,,,,,,,,128.0816060420002,128.0816060420002,128.38237941700027,None,1,,129.08200879200012,,,,,,,,,,,,,,,VianyMuñoz2,001,2022-11-03_22h38.00.906,Trial go no go,2022.2.4,59.801861482482806,
,,X,space,,,,,,,0,45,45,8,,,,,,,,,,,,,,,,,,,,,,,,,,,,,,129.08200879200012,129.08200879200012,129.38177583300057,space,1,0.4130386249998992,130.08206708299986,,,,,,,,,,,,,,,VianyMuñoz2,001,2022-11-03_22h38.00.906,Trial go no go,2022.2.4,59.801861482482806,
,,X,space,,,,,,,0,46,46,48,,,,,,,,,,,,,,,,,,,,,,,,,,,,,,130.08206708299986,130.08206708299986,130.38220745800027,space,1,0.4271560419983871,131.08207374999984,,,,,,,,,,,,,,,VianyMuñoz2,001,2022-11-03_22h38.00.906,Trial go no go,2022.2.4,59.801861482482806,
,,X,space,,,,,,,0,47,47,32,,,,,,,,,,,,,,,,,,,,,,,,,,,,,,131.08207374999984,131.08207374999984,131.38173450000068,space,1,0.44303691599998274,132.08167637500082,,,,,,,,,,,,,,,VianyMuñoz2,001,2022-11-03_22h38.00.906,Trial go no go,2022.2.4,59.801861482482806,
,,X,space,,,,,,,0,48,48,30,,,,,,,,,,,,,,,,,,,,,,,,,,,,,,132.08167637500082,132.08167637500082,132.38218983300067,space,1,0.3249021659994469,,,,,,,,,,,,,,,,VianyMuñoz2,001,2022-11-03_22h38.00.906,Trial go no go,2022.2.4,59.801861482482806,
,,X,space,,,,,,,0,49,49,33,,,,,,,,,,,,,,,,,,,,,,,,,,,,,,133.08191587500005,133.08191587500005,133.38180833300066,space,1,0.3261745410000003,134.08172987500075,,,,,,,,,,,,,,,VianyMuñoz2,001,2022-11-03_22h38.00.906,Trial go no go,2022.2.4,59.801861482482806,
,,,,,,,,,,,,,,,,,,,,,,,,,,,,,,,,,,,,,,,,,,,,,,,,,,134.08172987500075,134.56530558300074,space,15.62182570799996,,,,,,,,,,,VianyMuñoz2,001,2022-11-03_22h38.00.906,Trial go no go,2022.2.4,59.801861482482806,
,,,,H,space,,,,,,,,,0,0,0,28,,,,,,,,,,,,,,,,,,,,,,,,,,,,,,,,,,,,,149.74549350000052,149.74549350000052,150.04880799999955,space,1,0.7243845829998463,,,,,VianyMuñoz2,001,2022-11-03_22h38.00.906,Trial go no go,2022.2.4,59.801861482482806,
,,,,L,space,,,,,,,,,0,1,1,12,,,,,,,,,,,,,,,,,,,,,,,,,,,,,,,,,,,,,150.74892029200055,150.74892029200055,151.04886437499954,space,1,0.3941050419998646,,,,,VianyMuñoz2,001,2022-11-03_22h38.00.906,Trial go no go,2022.2.4,59.801861482482806,
,,,,T,space,,,,,,,,,0,2,2,41,,,,,,,,,,,,,,,,,,,,,,,,,,,,,,,,,,,,,151.74900716699995,151.74900716699995,152.04892183300035,space,1,0.2999876249996305,,,,,VianyMuñoz2,001,2022-11-03_22h38.00.906,Trial go no go,2022.2.4,59.801861482482806,
,,,,R,space,,,,,,,,,0,3,3,2,,,,,,,,,,,,,,,,,,,,,,,,,,,,,,,,,,,,,152.74935645799997,152.74935645799997,153.04915945799985,space,1,0.42236195799887355,,,,,VianyMuñoz2,001,2022-11-03_22h38.00.906,Trial go no go,2022.2.4,59.801861482482806,
,,,,Z,space,,,,,,,,,0,4,4,32,,,,,,,,,,,,,,,,,,,,,,,,,,,,,,,,,,,,,153.74915791700005,153.74915791700005,154.04896991699934,space,1,0.3025347499988129,,,,,VianyMuñoz2,001,2022-11-03_22h38.00.906,Trial go no go,2022.2.4,59.801861482482806,
,,,,T,space,,,,,,,,,0,5,5,3,,,,,,,,,,,,,,,,,,,,,,,,,,,,,,,,,,,,,154.7490131249997,154.7490131249997,155.0490587919994,space,1,0.30050562500036904,,,,,VianyMuñoz2,001,2022-11-03_22h38.00.906,Trial go no go,2022.2.4,59.801861482482806,
,,,,A,space,,,,,,,,,0,6,6,45,,,,,,,,,,,,,,,,,,,,,,,,,,,,,,,,,,,,,155.74969995799984,155.74969995799984,156.0491097920003,space,1,0.31988287499916623,,,,,VianyMuñoz2,001,2022-11-03_22h38.00.906,Trial go no go,2022.2.4,59.801861482482806,
,,,,X,none,,,,,,,,,0,7,7,19,,,,,,,,,,,,,,,,,,,,,,,,,,,,,,,,,,,,,156.74947270800112,156.74947270800112,157.0491891670008,None,1,,,,,,VianyMuñoz2,001,2022-11-03_22h38.00.906,Trial go no go,2022.2.4,59.801861482482806,
,,,,F,space,,,,,,,,,0,8,8,46,,,,,,,,,,,,,,,,,,,,,,,,,,,,,,,,,,,,,157.74905066700012,157.74905066700012,158.04913699999997,space,1,0.371217957999761,,,,,VianyMuñoz2,001,2022-11-03_22h38.00.906,Trial go no go,2022.2.4,59.801861482482806,
,,,,X,none,,,,,,,,,0,9,9,29,,,,,,,,,,,,,,,,,,,,,,,,,,,,,,,,,,,,,158.74931441700028,158.74931441700028,159.04914754200036,None,1,,,,,,VianyMuñoz2,001,2022-11-03_22h38.00.906,Trial go no go,2022.2.4,59.801861482482806,
,,,,F,space,,,,,,,,,0,10,10,27,,,,,,,,,,,,,,,,,,,,,,,,,,,,,,,,,,,,,159.7494437919995,159.7494437919995,160.04923058299937,space,1,0.36824904100103595,,,,,VianyMuñoz2,001,2022-11-03_22h38.00.906,Trial go no go,2022.2.4,59.801861482482806,
,,,,W,space,,,,,,,,,0,11,11,0,,,,,,,,,,,,,,,,,,,,,,,,,,,,,,,,,,,,,160.74932504199933,160.74932504199933,161.04909641700033,space,1,0.4215244159986469,,,,,VianyMuñoz2,001,2022-11-03_22h38.00.906,Trial go no go,2022.2.4,59.801861482482806,
,,,,X,none,,,,,,,,,0,12,12,44,,,,,,,,,,,,,,,,,,,,,,,,,,,,,,,,,,,,,161.74908983299974,161.74908983299974,162.04907583299973,None,1,,,,,,VianyMuñoz2,001,2022-11-03_22h38.00.906,Trial go no go,2022.2.4,59.801861482482806,
,,,,X,none,,,,,,,,,0,13,13,14,,,,,,,,,,,,,,,,,,,,,,,,,,,,,,,,,,,,,162.75003812500108,162.75003812500108,163.0493434580003,space,0,0.29588487500041083,,,,,VianyMuñoz2,001,2022-11-03_22h38.00.906,Trial go no go,2022.2.4,59.801861482482806,
,,,,I,space,,,,,,,,,0,14,14,6,,,,,,,,,,,,,,,,,,,,,,,,,,,,,,,,,,,,,163.74920154199935,163.74920154199935,164.04948175000027,space,1,0.36027904199909244,,,,,VianyMuñoz2,001,2022-11-03_22h38.00.906,Trial go no go,2022.2.4,59.801861482482806,
,,,,Y,space,,,,,,,,,0,15,15,42,,,,,,,,,,,,,,,,,,,,,,,,,,,,,,,,,,,,,164.74926937500095,164.74926937500095,165.04930841699934,space,1,0.3252632080002513,,,,,VianyMuñoz2,001,2022-11-03_22h38.00.906,Trial go no go,2022.2.4,59.801861482482806,
,,,,I,space,,,,,,,,,0,16,16,43,,,,,,,,,,,,,,,,,,,,,,,,,,,,,,,,,,,,,165.74945987499996,165.74945987499996,166.0492534999994,space,1,0.40898112499962735,,,,,VianyMuñoz2,001,2022-11-03_22h38.00.906,Trial go no go,2022.2.4,59.801861482482806,
,,,,X,none,,,,,,,,,0,17,17,34,,,,,,,,,,,,,,,,,,,,,,,,,,,,,,,,,,,,,166.74963558300078,166.74963558300078,167.04939854199984,space,0,0.32434316699982446,,,,,VianyMuñoz2,001,2022-11-03_22h38.00.906,Trial go no go,2022.2.4,59.801861482482806,
,,,,Y,space,,,,,,,,,0,18,18,23,,,,,,,,,,,,,,,,,,,,,,,,,,,,,,,,,,,,,167.74934683299944,167.74934683299944,168.04965683299997,space,1,0.4726132499999949,,,,,VianyMuñoz2,001,2022-11-03_22h38.00.906,Trial go no go,2022.2.4,59.801861482482806,
,,,,W,space,,,,,,,,,0,19,19,18,,,,,,,,,,,,,,,,,,,,,,,,,,,,,,,,,,,,,168.74942604200078,168.74942604200078,169.04952500000036,space,1,0.38598224999986996,,,,,VianyMuñoz2,001,2022-11-03_22h38.00.906,Trial go no go,2022.2.4,59.801861482482806,
,,,,H,space,,,,,,,,,0,20,20,47,,,,,,,,,,,,,,,,,,,,,,,,,,,,,,,,,,,,,169.74994666699968,169.74994666699968,170.04930687500018,space,1,0.3701972910002951,,,,,VianyMuñoz2,001,2022-11-03_22h38.00.906,Trial go no go,2022.2.4,59.801861482482806,
,,,,A,space,,,,,,,,,0,21,21,7,,,,,,,,,,,,,,,,,,,,,,,,,,,,,,,,,,,,,170.7495490830006,170.7495490830006,171.04939479200038,space,1,0.32318245799979195,,,,,VianyMuñoz2,001,2022-11-03_22h38.00.906,Trial go no go,2022.2.4,59.801861482482806,
,,,,H,space,,,,,,,,,0,22,22,10,,,,,,,,,,,,,,,,,,,,,,,,,,,,,,,,,,,,,171.74951154200062,171.74951154200062,172.0495954580001,space,1,0.5850340420001885,,,,,VianyMuñoz2,001,2022-11-03_22h38.00.906,Trial go no go,2022.2.4,59.801861482482806,
,,,,W,space,,,,,,,,,0,23,23,37,,,,,,,,,,,,,,,,,,,,,,,,,,,,,,,,,,,,,172.74940533300105,172.74940533300105,173.049662292,space,1,0.6149491659980413,,,,,VianyMuñoz2,001,2022-11-03_22h38.00.906,Trial go no go,2022.2.4,59.801861482482806,
,,,,Y,space,,,,,,,,,0,24,24,5,,,,,,,,,,,,,,,,,,,,,,,,,,,,,,,,,,,,,173.74968912499935,173.74968912499935,174.04961300000105,space,1,0.41991816599875165,,,,,VianyMuñoz2,001,2022-11-03_22h38.00.906,Trial go no go,2022.2.4,59.801861482482806,
,,,,F,space,,,,,,,,,0,25,25,8,,,,,,,,,,,,,,,,,,,,,,,,,,,,,,,,,,,,,174.75030437500027,174.75030437500027,175.0494512919995,space,1,0.35837166599958437,,,,,VianyMuñoz2,001,2022-11-03_22h38.00.906,Trial go no go,2022.2.4,59.801861482482806,
,,,,N,space,,,,,,,,,0,26,26,16,,,,,,,,,,,,,,,,,,,,,,,,,,,,,,,,,,,,,175.74945041700084,175.74945041700084,176.04963950000092,space,1,0.4313457499993092,,,,,VianyMuñoz2,001,2022-11-03_22h38.00.906,Trial go no go,2022.2.4,59.801861482482806,
,,,,Z,space,,,,,,,,,0,27,27,13,,,,,,,,,,,,,,,,,,,,,,,,,,,,,,,,,,,,,176.74994012500065,176.74994012500065,177.0494245000009,space,1,0.3418005830008042,,,,,VianyMuñoz2,001,2022-11-03_22h38.00.906,Trial go no go,2022.2.4,59.801861482482806,
,,,,A,space,,,,,,,,,0,28,28,26,,,,,,,,,,,,,,,,,,,,,,,,,,,,,,,,,,,,,177.74949899999956,177.74949899999956,178.04953987500085,None,0,,,,,,VianyMuñoz2,001,2022-11-03_22h38.00.906,Trial go no go,2022.2.4,59.801861482482806,
,,,,X,none,,,,,,,,,0,29,29,24,,,,,,,,,,,,,,,,,,,,,,,,,,,,,,,,,,,,,178.74990816699938,178.74990816699938,179.0495160419996,space,0,0.06577404100062267,,,,,VianyMuñoz2,001,2022-11-03_22h38.00.906,Trial go no go,2022.2.4,59.801861482482806,
,,,,V,space,,,,,,,,,0,30,30,33,,,,,,,,,,,,,,,,,,,,,,,,,,,,,,,,,,,,,179.74955279200003,179.74955279200003,180.04988475000027,space,1,0.4772649160004221,,,,,VianyMuñoz2,001,2022-11-03_22h38.00.906,Trial go no go,2022.2.4,59.801861482482806,
,,,,V,space,,,,,,,,,0,31,31,15,,,,,,,,,,,,,,,,,,,,,,,,,,,,,,,,,,,,,180.749852500001,180.749852500001,181.04973620800047,space,1,0.3674941659992328,,,,,VianyMuñoz2,001,2022-11-03_22h38.00.906,Trial go no go,2022.2.4,59.801861482482806,
,,,,K,space,,,,,,,,,0,32,32,11,,,,,,,,,,,,,,,,,,,,,,,,,,,,,,,,,,,,,181.7495320830003,181.7495320830003,182.05008137500045,space,1,0.40992849899885186,,,,,VianyMuñoz2,001,2022-11-03_22h38.00.906,Trial go no go,2022.2.4,59.801861482482806,
,,,,K,space,,,,,,,,,0,33,33,48,,,,,,,,,,,,,,,,,,,,,,,,,,,,,,,,,,,,,182.74990875000003,182.74990875000003,183.04996416699942,space,1,0.33367258299949754,,,,,VianyMuñoz2,001,2022-11-03_22h38.00.906,Trial go no go,2022.2.4,59.801861482482806,
,,,,E,space,,,,,,,,,0,34,34,1,,,,,,,,,,,,,,,,,,,,,,,,,,,,,,,,,,,,,183.74985916700098,183.74985916700098,184.04994075000104,space,1,0.3653409999988071,,,,,VianyMuñoz2,001,2022-11-03_22h38.00.906,Trial go no go,2022.2.4,59.801861482482806,
,,,,I,space,,,,,,,,,0,35,35,25,,,,,,,,,,,,,,,,,,,,,,,,,,,,,,,,,,,,,184.74958229200092,184.74958229200092,185.05010220800068,space,1,0.4174914159993932,,,,,VianyMuñoz2,001,2022-11-03_22h38.00.906,Trial go no go,2022.2.4,59.801861482482806,
,,,,M,space,,,,,,,,,0,36,36,36,,,,,,,,,,,,,,,,,,,,,,,,,,,,,,,,,,,,,185.75002854200102,185.75002854200102,186.04993966700022,space,1,0.4152409170001192,,,,,VianyMuñoz2,001,2022-11-03_22h38.00.906,Trial go no go,2022.2.4,59.801861482482806,
,,,,X,none,,,,,,,,,0,37,37,9,,,,,,,,,,,,,,,,,,,,,,,,,,,,,,,,,,,,,186.75007874999937,186.75007874999937,187.04970595800114,None,1,,,,,,VianyMuñoz2,001,2022-11-03_22h38.00.906,Trial go no go,2022.2.4,59.801861482482806,
,,,,L,space,,,,,,,,,0,38,38,31,,,,,,,,,,,,,,,,,,,,,,,,,,,,,,,,,,,,,187.74973695799963,187.74973695799963,188.0500558750009,space,1,0.39943666599901917,,,,,VianyMuñoz2,001,2022-11-03_22h38.00.906,Trial go no go,2022.2.4,59.801861482482806,
,,,,E,space,,,,,,,,,0,39,39,38,,,,,,,,,,,,,,,,,,,,,,,,,,,,,,,,,,,,,188.74981191699953,188.74981191699953,189.04996970799948,space,1,0.3585737489993335,,,,,VianyMuñoz2,001,2022-11-03_22h38.00.906,Trial go no go,2022.2.4,59.801861482482806,
,,,,N,space,,,,,,,,,0,40,40,35,,,,,,,,,,,,,,,,,,,,,,,,,,,,,,,,,,,,,189.7498384169994,189.7498384169994,190.04986358300084,space,1,0.46780541599946446,,,,,VianyMuñoz2,001,2022-11-03_22h38.00.906,Trial go no go,2022.2.4,59.801861482482806,
,,,,R,space,,,,,,,,,0,41,41,21,,,,,,,,,,,,,,,,,,,,,,,,,,,,,,,,,,,,,190.7498655420004,190.7498655420004,191.05006087500078,space,1,0.36315162500068254,,,,,VianyMuñoz2,001,2022-11-03_22h38.00.906,Trial go no go,2022.2.4,59.801861482482806,
,,,,K,space,,,,,,,,,0,42,42,30,,,,,,,,,,,,,,,,,,,,,,,,,,,,,,,,,,,,,191.74990887500098,191.74990887500098,192.05044649999945,space,1,0.7168105410000862,,,,,VianyMuñoz2,001,2022-11-03_22h38.00.906,Trial go no go,2022.2.4,59.801861482482806,
,,,,X,none,,,,,,,,,0,43,43,49,,,,,,,,,,,,,,,,,,,,,,,,,,,,,,,,,,,,,192.74996391700006,192.74996391700006,193.05035641699942,None,1,,,,,,VianyMuñoz2,001,2022-11-03_22h38.00.906,Trial go no go,2022.2.4,59.801861482482806,
,,,,X,none,,,,,,,,,0,44,44,4,,,,,,,,,,,,,,,,,,,,,,,,,,,,,,,,,,,,,193.7500520829999,193.7500520829999,194.05012412500037,None,1,,,,,,VianyMuñoz2,001,2022-11-03_22h38.00.906,Trial go no go,2022.2.4,59.801861482482806,
,,,,M,space,,,,,,,,,0,45,45,17,,,,,,,,,,,,,,,,,,,,,,,,,,,,,,,,,,,,,194.75014662499962,194.75014662499962,195.05042366700036,space,1,0.37960754099913174,,,,,VianyMuñoz2,001,2022-11-03_22h38.00.906,Trial go no go,2022.2.4,59.801861482482806,
,,,,T,space,,,,,,,,,0,46,46,22,,,,,,,,,,,,,,,,,,,,,,,,,,,,,,,,,,,,,195.74990216700098,195.74990216700098,196.0502607920007,space,1,0.33704066700011026,,,,,VianyMuñoz2,001,2022-11-03_22h38.00.906,Trial go no go,2022.2.4,59.801861482482806,
,,,,E,space,,,,,,,,,0,47,47,20,,,,,,,,,,,,,,,,,,,,,,,,,,,,,,,,,,,,,196.74990912500107,196.74990912500107,197.05015558299965,space,1,0.2956204580004851,,,,,VianyMuñoz2,001,2022-11-03_22h38.00.906,Trial go no go,2022.2.4,59.801861482482806,
,,,,X,none,,,,,,,,,0,48,48,39,,,,,,,,,,,,,,,,,,,,,,,,,,,,,,,,,,,,,197.7504348750008,197.7504348750008,198.05031741700077,space,0,0.34140191600090475,,,,,VianyMuñoz2,001,2022-11-03_22h38.00.906,Trial go no go,2022.2.4,59.801861482482806,
,,,,R,space,,,,,,,,,0,49,49,40,,,,,,,,,,,,,,,,,,,,,,,,,,,,,,,,,,,,,198.75043141700007,198.75043141700007,199.05025424999985,space,1,0.3522131250010716,,,,,VianyMuñoz2,001,2022-11-03_22h38.00.906,Trial go no go,2022.2.4,59.801861482482806,
,,,,,,,,,,,,,,,,,,,,,,,,,,,,,,,,,,,,,,,,,,,,,,,,,,,,,,,,,,,,199.75004804200034,200.21671312500075,space,2.3343047910002497,VianyMuñoz2,001,2022-11-03_22h38.00.906,Trial go no go,2022.2.4,59.801861482482806,
