S1,S2,S3,S4,S5,S6,S7,S8,S9,S10,S11,S12,S13,S14,S15,S16,CorrAns3,CorrAns4,CorrAns5,CorrAns6,CorrAns7,CorrAns8,CorrAns9,CorrAns10,CorrAns11,CorrAns12,CorrAns13,CorrAns14,CorrAns15,CorrAns16,trials_2.thisRepN,trials_2.thisTrialN,trials_2.thisN,trials_2.thisIndex,trials.thisRepN,trials.thisTrialN,trials.thisN,trials.thisIndex,trials_3.thisRepN,trials_3.thisTrialN,trials_3.thisN,trials_3.thisIndex,Seq4_tr.started,recall_resp,key_resp_4.keys,key_resp_4.corr,key_resp_4.rt,Seq4_tr.stopped,text_go.started,key_resp_5.started,DS,key_resp2_2.keys,key_resp2_2.corr,key_resp2_2.rt,score,Forward WM score,B_DS,key_resp2_2B.keys,key_resp2_2B.corr,key_resp2_2B.rt,Backward WM score,participant,session,date,expName,psychopyVersion,frameRate,
8,1,6,0,0,0,0,0,0,0,0,0,0,0,0,0,"['8', '1', '6']",None,None,None,None,None,None,None,None,None,None,None,None,None,,,,,0,0,0,0,,,,,40.25581279100152,816,"['1', '2', '3', '4']",0,"[0.9163403749989811, 1.1336620419970131, 1.4010804170029587, 1.6478895830005058, 2.398018416999548]",41.25564316599775,44.1722123330037,44.1722123330037,3,"['8', '1', '6']",0,"[2.7944441660001758, 3.054013875000237, 3.876608500002476, 4.129626207999536]",1,,,,,,,SAmano2,001,2022-11-16_20h41.46.319,DS_Adapt1L,2022.2.4,59.850195080396254,
4,7,2,9,0,0,0,0,0,0,0,0,0,0,0,0,"['4', '7', '2']","['4', '7', '2', '9']",None,None,None,None,None,None,None,None,None,None,None,None,,,,,0,1,1,1,,,,,,4729,,,,,,,4,"['4', '7', '2', '9']",0,"[1.1286259159969632, 1.7202694579973468, 1.9990472079953179, 2.2241692079987843, 2.681522582999605]",1,,,,,,,SAmano2,001,2022-11-16_20h41.46.319,DS_Adapt1L,2022.2.4,59.850195080396254,
6,9,1,7,2,0,0,0,0,0,0,0,0,0,0,0,"['6', '9', '1']","['6', '9', '1', '7']","['6', '9', '1', '7', '2']",None,None,None,None,None,None,None,None,None,None,None,,,,,0,2,2,2,,,,,,16972,,,,,,,5,"['1', '6', '9', '7', '2']",0,"[2.600925416998507, 2.7652322499998263, 3.1826965419968474, 3.7629087919995072, 3.882106749995728, 4.2764901670016116]",0,,,,,,,SAmano2,001,2022-11-16_20h41.46.319,DS_Adapt1L,2022.2.4,59.850195080396254,
7,9,4,1,8,2,0,0,0,0,0,0,0,0,0,0,"['7', '9', '4']","['7', '9', '4', '1']","['7', '9', '4', '1', '8']","['7', '9', '4', '1', '8', '2']",None,None,None,None,None,None,None,None,None,None,,,,,0,3,3,3,,,,,,79498,,,,,,,5,"['7', '9', '4', '9', '8']",0,"[0.9989908749994356, 1.4049864999979036, 2.532821790999151, 3.7963277499948163, 3.9325156659979257, 4.408687874994939]",0,,,,,,,SAmano2,001,2022-11-16_20h41.46.319,DS_Adapt1L,2022.2.4,59.850195080396254,
5,2,8,4,7,3,9,0,0,0,0,0,0,0,0,0,"['5', '2', '8']","['5', '2', '8', '4']","['5', '2', '8', '4', '7']","['5', '2', '8', '4', '7', '3']","['5', '2', '8', '4', '7', '3', '9']",None,None,None,None,None,None,None,None,None,,,,,0,4,4,4,,,,,,5284,,,,,,,4,"['5', '2', '8', '4']",0,"[1.6992747920012334, 2.0770695419996628, 2.8541176250000717, 3.083746541997243, 3.415596375001769]",1,,,,,,,SAmano2,001,2022-11-16_20h41.46.319,DS_Adapt1L,2022.2.4,59.850195080396254,
2,5,1,7,4,9,3,8,0,0,0,0,0,0,0,0,"['2', '5', '1']","['2', '5', '1', '7']","['2', '5', '1', '7', '4']","['2', '5', '1', '7', '4', '9']","['2', '5', '1', '7', '4', '9', '3']","['2', '5', '1', '7', '4', '9', '3', '8']",None,None,None,None,None,None,None,None,,,,,0,5,5,5,,,,,,251274,,,,,,,5,"['2', '5', '1', '2', '7', '4']",0,"[1.0980819999967935, 1.408521582998219, 1.781063082999026, 2.2043911659930018, 2.7605661249981495, 2.869562040999881, 4.495485124993138]",0,,,,,,,SAmano2,001,2022-11-16_20h41.46.319,DS_Adapt1L,2022.2.4,59.850195080396254,
6,2,5,8,3,9,4,1,7,0,0,0,0,0,0,0,"['6', '2', '5']","['6', '2', '5', '8']","['6', '2', '5', '8', '3']","['6', '2', '5', '8', '3', '9']","['6', '2', '5', '8', '3', '9', '4']","['6', '2', '5', '8', '3', '9', '4', '1']","['6', '2', '5', '8', '3', '9', '4', '1', '7']",None,None,None,None,None,None,None,,,,,0,6,6,6,,,,,,62583,,,,,,,5,"['6', '2', '5', '8', '3']",0,"[1.424743874995329, 1.8691310419962974, 2.5027080419968115, 3.286745624995092, 3.407478833993082, 3.7483744169949205]",1,,,,,,,SAmano2,001,2022-11-16_20h41.46.319,DS_Adapt1L,2022.2.4,59.850195080396254,
1,7,3,8,4,9,5,2,6,9,0,0,0,0,0,0,"['1', '7', '3']","['1', '7', '3', '8']","['1', '7', '3', '8', '4']","['1', '7', '3', '8', '4', '9']","['1', '7', '3', '8', '4', '9', '5']","['1', '7', '3', '8', '4', '9', '5', '2']","['1', '7', '3', '8', '4', '9', '5', '2', '6']","['1', '7', '3', '8', '4', '9', '5', '2', '6', '9']",None,None,None,None,None,None,,,,,0,7,7,7,,,,,,174238,,,,,,,6,"['1', '7', '4', '2', '3', '8']",0,"[1.5417832499952056, 1.831118249996507, 8.315069207994384, 10.80485241599672, 11.427631582999311, 11.502354082993406, 12.098843957995996]",0,,,,,,,SAmano2,001,2022-11-16_20h41.46.319,DS_Adapt1L,2022.2.4,59.850195080396254,
4,9,6,2,5,8,1,7,3,7,4,0,0,0,0,0,"['4', '9', '6']","['4', '9', '6', '2']","['4', '9', '6', '2', '5']","['4', '9', '6', '2', '5', '8']","['4', '9', '6', '2', '5', '8', '1']","['4', '9', '6', '2', '5', '8', '1', '7']","['4', '9', '6', '2', '5', '8', '1', '7', '3']","['4', '9', '6', '2', '5', '8', '1', '7', '3', '7']","['4', '9', '6', '2', '5', '8', '1', '7', '3', '7', '4']",None,None,None,None,None,,,,,0,8,8,8,,,,,,49758,,,,,,,6,"['4', '9', '7', '5', '8']",0,"[2.8030773749997024, 3.1836730409995653, 3.810882500001753, 11.204507249996823, 11.26335874999495, 12.107559625001159]",0,,,,,,,SAmano2,001,2022-11-16_20h41.46.319,DS_Adapt1L,2022.2.4,59.850195080396254,
8,4,1,7,3,6,2,5,9,1,6,3,0,0,0,0,"['8', '4', '1']","['8', '4', '1', '7']","['8', '4', '1', '7', '3']","['8', '4', '1', '7', '3', '6']","['8', '4', '1', '7', '3', '6', '2']","['8', '4', '1', '7', '3', '6', '2', '5']","['8', '4', '1', '7', '3', '6', '2', '5', '9']","['8', '4', '1', '7', '3', '6', '2', '5', '9', '1']","['8', '4', '1', '7', '3', '6', '2', '5', '9', '1', '6']","['8', '4', '1', '7', '3', '6', '2', '5', '9', '1', '6', '3']",None,None,None,None,,,,,0,9,9,9,,,,,,841732,,,,,,,5,"['8', '4', '1', '7', '3', '2']",0,"[2.5862791249965085, 2.9320301249972545, 3.477347207997809, 3.951796082998044, 4.445456415996887, 6.737807124998653, 6.826177625000128]",0,,,,,,,SAmano2,001,2022-11-16_20h41.46.319,DS_Adapt1L,2022.2.4,59.850195080396254,
5,9,4,1,6,9,3,8,2,6,1,8,2,0,0,0,"['5', '9', '4']","['5', '9', '4', '1']","['5', '9', '4', '1', '6']","['5', '9', '4', '1', '6', '9']","['5', '9', '4', '1', '6', '9', '3']","['5', '9', '4', '1', '6', '9', '3', '8']","['5', '9', '4', '1', '6', '9', '3', '8', '2']","['5', '9', '4', '1', '6', '9', '3', '8', '2', '6']","['5', '9', '4', '1', '6', '9', '3', '8', '2', '6', '1']","['5', '9', '4', '1', '6', '9', '3', '8', '2', '6', '1', '8']","['5', '9', '4', '1', '6', '9', '3', '8', '2', '6', '1', '8', '2']",None,None,None,,,,,0,10,10,10,,,,,,54916,,,,,,,5,"['5', '4', '9', '1', '6']",0,"[1.633363000000827, 2.5670743329974357, 3.499774875002913, 4.0299381660006475, 4.265392041001178, 4.869318040997314]",0,,,,,,,SAmano2,001,2022-11-16_20h41.46.319,DS_Adapt1L,2022.2.4,59.850195080396254,
3,7,2,5,8,4,1,9,6,3,7,1,4,8,0,0,"['3', '7', '2']","['3', '7', '2', '5']","['3', '7', '2', '5', '8']","['3', '7', '2', '5', '8', '4']","['3', '7', '2', '5', '8', '4', '1']","['3', '7', '2', '5', '8', '4', '1', '9']","['3', '7', '2', '5', '8', '4', '1', '9', '6']","['3', '7', '2', '5', '8', '4', '1', '9', '6', '3']","['3', '7', '2', '5', '8', '4', '1', '9', '6', '3', '7']","['3', '7', '2', '5', '8', '4', '1', '9', '6', '3', '7', '1']","['3', '7', '2', '5', '8', '4', '1', '9', '6', '3', '7', '1', '4']","['3', '7', '2', '5', '8', '4', '1', '9', '6', '3', '7', '1', '4', '8']",None,None,,,,,0,11,11,11,,,,,,3725,,,,,,,4,"['3', '7', '2', '5']",0,"[1.3936713750008494, 1.6458570410031825, 2.050097500003176, 2.8682818330053124, 2.9695187079996685]",1,,,,,,,SAmano2,001,2022-11-16_20h41.46.319,DS_Adapt1L,2022.2.4,59.850195080396254,
9,4,8,3,7,1,5,2,6,3,9,1,6,2,7,0,"['9', '4', '8']","['9', '4', '8', '3']","['9', '4', '8', '3', '7']","['9', '4', '8', '3', '7', '1']","['9', '4', '8', '3', '7', '1', '5']","['9', '4', '8', '3', '7', '1', '5', '2']","['9', '4', '8', '3', '7', '1', '5', '2', '6']","['9', '4', '8', '3', '7', '1', '5', '2', '6', '3']","['9', '4', '8', '3', '7', '1', '5', '2', '6', '3', '9']","['9', '4', '8', '3', '7', '1', '5', '2', '6', '3', '9', '1']","['9', '4', '8', '3', '7', '1', '5', '2', '6', '3', '9', '1', '6']","['9', '4', '8', '3', '7', '1', '5', '2', '6', '3', '9', '1', '6', '2']","['9', '4', '8', '3', '7', '1', '5', '2', '6', '3', '9', '1', '6', '2', '7']",None,,,,,0,12,12,12,,,,,,9827,,,,,,,5,"['9', '8', '2', '7']",0,"[6.454648457998701, 6.968386332999216, 7.973006332998921, 8.173812583001563, 8.848065457998018]",0,,,,,,,SAmano2,001,2022-11-16_20h41.46.319,DS_Adapt1L,2022.2.4,59.850195080396254,
1,5,9,4,7,3,8,2,6,2,7,3,6,1,5,8,"['1', '5', '9']","['1', '5', '9', '4']","['1', '5', '9', '4', '7']","['1', '5', '9', '4', '7', '3']","['1', '5', '9', '4', '7', '3', '8']","['1', '5', '9', '4', '7', '3', '8', '2']","['1', '5', '9', '4', '7', '3', '8', '2', '6']","['1', '5', '9', '4', '7', '3', '8', '2', '6', '2']","['1', '5', '9', '4', '7', '3', '8', '2', '6', '2', '7']","['1', '5', '9', '4', '7', '3', '8', '2', '6', '2', '7', '3']","['1', '5', '9', '4', '7', '3', '8', '2', '6', '2', '7', '3', '6']","['1', '5', '9', '4', '7', '3', '8', '2', '6', '2', '7', '3', '6', '1']","['1', '5', '9', '4', '7', '3', '8', '2', '6', '2', '7', '3', '6', '1', '5']","['1', '5', '9', '4', '7', '3', '8', '2', '6', '2', '7', '3', '6', '1', '5', '8']",,,,,0,13,13,13,,,,,,15947,,,,,,,5,"['1', '5', '9', '4', '7']",0,"[1.5080137500044657, 1.9821857920032926, 2.3649072920015897, 3.5584033750055823, 4.024336292000953, 4.498063125000044]",1,,,,,,,SAmano2,001,2022-11-16_20h41.46.319,DS_Adapt1L,2022.2.4,59.850195080396254,
None,None,None,None,None,None,None,None,None,None,None,None,None,None,None,None,None,None,None,None,None,None,None,None,None,None,None,None,None,None,,,,,0,14,14,14,,,,,,195473,,,,,,,6,"['1', '9', '5', '4', '7', '3']",0,"[1.8484168330032844, 2.7885217500006547, 3.24960266600101, 4.488024750004115, 6.82062450000376, 6.91420029100118, 7.853995458004647]",0,,,,,,,SAmano2,001,2022-11-16_20h41.46.319,DS_Adapt1L,2022.2.4,59.850195080396254,
1,5,9,0,0,0,0,0,0,0,0,0,0,0,0,0,"['9', '5', '1']",None,None,None,None,None,None,None,None,None,None,None,None,None,,,,,,,,,0,0,0,0,,951,,,,,,,,,,,1,4.75,3,"['9', '5', '1']",0,"[2.7839586249974673, 3.086578209004074, 3.215916291999747, 3.606825791997835]",,SAmano2,001,2022-11-16_20h41.46.319,DS_Adapt1L,2022.2.4,59.850195080396254,
4,7,3,8,0,0,0,0,0,0,0,0,0,0,0,0,"['3', '7', '4']","['8', '3', '7', '4']",None,None,None,None,None,None,None,None,None,None,None,None,,,,,,,,,0,1,1,1,,8374,,,,,,,,,,,1,,4,"['8', '3', '7', '4']",0,"[2.7598533749987837, 3.217494083000929, 4.01638458299567, 4.440057291998528, 4.610810375001165]",,SAmano2,001,2022-11-16_20h41.46.319,DS_Adapt1L,2022.2.4,59.850195080396254,
2,6,1,7,3,0,0,0,0,0,0,0,0,0,0,0,"['1', '6', '2']","['7', '1', '6', '2']","['3', '7', '1', '6', '2']",None,None,None,None,None,None,None,None,None,None,None,,,,,,,,,0,2,2,2,,3761,,,,,,,,,,,0,,5,"['3', '7', '6', '1']",0,"[4.6242166250012815, 5.166028667001228, 5.584358500003873, 6.153543250002258, 6.784074041999702]",,SAmano2,001,2022-11-16_20h41.46.319,DS_Adapt1L,2022.2.4,59.850195080396254,
6,1,5,9,4,8,0,0,0,0,0,0,0,0,0,0,"['5', '1', '6']","['9', '5', '1', '6']","['4', '9', '5', '1', '6']","['8', '4', '9', '5', '1', '6']",None,None,None,None,None,None,None,None,None,None,,,,,,,,,0,3,3,3,,49516,,,,,,,,,,,1,,5,"['4', '9', '5', '1', '6']",0,"[8.41868487499596, 8.560206124995602, 8.912635957996827, 12.449188250000589, 13.141366791001929, 13.80644829099765]",,SAmano2,001,2022-11-16_20h41.46.319,DS_Adapt1L,2022.2.4,59.850195080396254,
3,7,1,5,2,6,9,0,0,0,0,0,0,0,0,0,"['1', '7', '3']","['5', '1', '7', '3']","['2', '5', '1', '7', '3']","['6', '2', '5', '1', '7', '3']","['9', '6', '2', '5', '1', '7', '3']",None,None,None,None,None,None,None,None,None,,,,,,,,,0,4,4,4,,62174,,,,,,,,,,,0,,6,"['6', '2', '1', '7', '4']",0,"[2.0516462919986225, 2.484474708995549, 4.237634375000198, 4.610529083998699, 5.4098436669955845, 5.54386141699797]",,SAmano2,001,2022-11-16_20h41.46.319,DS_Adapt1L,2022.2.4,59.850195080396254,
9,3,6,2,5,8,4,1,0,0,0,0,0,0,0,0,"['6', '3', '9']","['2', '6', '3', '9']","['5', '2', '6', '3', '9']","['8', '5', '2', '6', '3', '9']","['4', '8', '5', '2', '6', '3', '9']","['1', '4', '8', '5', '2', '6', '3', '9']",None,None,None,None,None,None,None,None,,,,,,,,,0,5,5,5,,85961,,,,,,,,,,,0,,6,"['8', '5', '9', '6', '1']",0,"[1.3064050410030177, 1.8448072910032352, 2.9126380829984555, 4.079126874996291, 4.364681291001034, 4.9414526249966]",,SAmano2,001,2022-11-16_20h41.46.319,DS_Adapt1L,2022.2.4,59.850195080396254,
1,7,4,9,5,8,3,6,2,0,0,0,0,0,0,0,"['4', '7', '1']","['9', '4', '7', '1']","['5', '9', '4', '7', '1']","['8', '5', '9', '4', '7', '1']","['3', '8', '5', '9', '4', '7', '1']","['6', '3', '8', '5', '9', '4', '7', '1']","['2', '6', '3', '8', '5', '9', '4', '7', '1']",None,None,None,None,None,None,None,,,,,,,,,0,6,6,6,,59471,,,,,,,,,,,1,,5,"['5', '9', '4', '7', '1']",0,"[1.2885784579993924, 1.9413504580006702, 2.9387675000034506, 4.710925291998137, 4.84035983299691, 5.344174958001531]",,SAmano2,001,2022-11-16_20h41.46.319,DS_Adapt1L,2022.2.4,59.850195080396254,
8,2,6,3,7,1,4,9,5,2,0,0,0,0,0,0,"['6', '2', '8']","['3', '6', '2', '8']","['7', '3', '6', '2', '8']","['1', '7', '3', '6', '2', '8']","['4', '1', '7', '3', '6', '2', '8']","['9', '4', '1', '7', '3', '6', '2', '8']","['5', '9', '4', '1', '7', '3', '6', '2', '8']","['2', '5', '9', '4', '1', '7', '3', '6', '2', '8']",None,None,None,None,None,None,,,,,,,,,0,7,7,7,,178321,,,,,,,,,,,0,,6,"['1', '7', '8', '3', '2', '1']",0,"[2.253224959000363, 2.66727779199573, 4.159712499997113, 4.332695583994791, 5.36955283399584, 5.792838416993618, 5.8949241249938495]",,SAmano2,001,2022-11-16_20h41.46.319,DS_Adapt1L,2022.2.4,59.850195080396254,
3,8,1,9,6,2,5,8,4,7,1,0,0,0,0,0,"['1', '8', '3']","['9', '1', '8', '3']","['6', '9', '1', '8', '3']","['2', '6', '9', '1', '8', '3']","['5', '2', '6', '9', '1', '8', '3']","['8', '5', '2', '6', '9', '1', '8', '3']","['4', '8', '5', '2', '6', '9', '1', '8', '3']","['7', '4', '8', '5', '2', '6', '9', '1', '8', '3']","['1', '7', '4', '8', '5', '2', '6', '9', '1', '8', '3']",None,None,None,None,None,,,,,,,,,0,8,8,8,,26981,,,,,,,,,,,0,,6,"['2', '6', '9', '8', '1']",0,"[1.25199779200193, 1.5107852079963777, 2.80776304200117, 3.4590139579959214, 4.251770832997863, 4.462455832996056]",,SAmano2,001,2022-11-16_20h41.46.319,DS_Adapt1L,2022.2.4,59.850195080396254,
9,5,1,4,8,2,6,3,7,3,1,9,0,0,0,0,"['1', '5', '9']","['4', '1', '5', '9']","['8', '4', '1', '5', '9']","['2', '8', '4', '1', '5', '9']","['6', '2', '8', '4', '1', '5', '9']","['3', '6', '2', '8', '4', '1', '5', '9']","['7', '3', '6', '2', '8', '4', '1', '5', '9']","['3', '7', '3', '6', '2', '8', '4', '1', '5', '9']","['1', '3', '7', '3', '6', '2', '8', '4', '1', '5', '9']","['9', '1', '3', '7', '3', '6', '2', '8', '4', '1', '5', '9']",None,None,None,None,,,,,,,,,0,9,9,9,,84195,,,,,,,,,,,0,,5,"['8', '4', '1', '9', '5']",0,"[1.4312756250001257, 2.5022614160043304, 5.525968416004616, 5.698271166002087, 5.834819250005239, 6.3645092910010135]",,SAmano2,001,2022-11-16_20h41.46.319,DS_Adapt1L,2022.2.4,59.850195080396254,
5,8,4,1,9,2,7,3,6,2,8,1,6,0,0,0,"['4', '8', '5']","['1', '4', '8', '5']","['9', '1', '4', '8', '5']","['2', '9', '1', '4', '8', '5']","['7', '2', '9', '1', '4', '8', '5']","['3', '7', '2', '9', '1', '4', '8', '5']","['6', '3', '7', '2', '9', '1', '4', '8', '5']","['2', '6', '3', '7', '2', '9', '1', '4', '8', '5']","['8', '2', '6', '3', '7', '2', '9', '1', '4', '8', '5']","['1', '8', '2', '6', '3', '7', '2', '9', '1', '4', '8', '5']","['6', '1', '8', '2', '6', '3', '7', '2', '9', '1', '4', '8', '5']",None,None,None,,,,,,,,,0,10,10,10,,91549,,,,,,,,,,,0,,5,"['9', '1', '5', '4', '9']",0,"[6.087028833004297, 6.272254417002841, 6.762414541997714, 7.035303875003592, 7.186609500000486, 7.560073874999944]",,SAmano2,001,2022-11-16_20h41.46.319,DS_Adapt1L,2022.2.4,59.850195080396254,
1,6,9,4,7,2,5,8,3,9,4,7,2,6,0,0,"['9', '6', '1']","['4', '9', '6', '1']","['7', '4', '9', '6', '1']","['2', '7', '4', '9', '6', '1']","['5', '2', '7', '4', '9', '6', '1']","['8', '5', '2', '7', '4', '9', '6', '1']","['3', '8', '5', '2', '7', '4', '9', '6', '1']","['9', '3', '8', '5', '2', '7', '4', '9', '6', '1']","['4', '9', '3', '8', '5', '2', '7', '4', '9', '6', '1']","['7', '4', '9', '3', '8', '5', '2', '7', '4', '9', '6', '1']","['2', '7', '4', '9', '3', '8', '5', '2', '7', '4', '9', '6', '1']","['6', '2', '7', '4', '9', '3', '8', '5', '2', '7', '4', '9', '6', '1']",None,None,,,,,,,,,0,11,11,11,,9451,,,,,,,,,,,0,,4,"['9', '4', '5', '1']",0,"[2.4829803750035353, 2.858447124999657, 4.173892167003942, 4.598385000004782, 4.897994750004727]",,SAmano2,001,2022-11-16_20h41.46.319,DS_Adapt1L,2022.2.4,59.850195080396254,
2,7,4,9,1,6,3,8,5,9,4,1,7,2,8,0,"['4', '7', '2']","['9', '4', '7', '2']","['1', '9', '4', '7', '2']","['6', '1', '9', '4', '7', '2']","['3', '6', '1', '9', '4', '7', '2']","['8', '3', '6', '1', '9', '4', '7', '2']","['5', '8', '3', '6', '1', '9', '4', '7', '2']","['9', '5', '8', '3', '6', '1', '9', '4', '7', '2']","['4', '9', '5', '8', '3', '6', '1', '9', '4', '7', '2']","['1', '4', '9', '5', '8', '3', '6', '1', '9', '4', '7', '2']","['7', '1', '4', '9', '5', '8', '3', '6', '1', '9', '4', '7', '2']","['2', '7', '1', '4', '9', '5', '8', '3', '6', '1', '9', '4', '7', '2']","['8', '2', '7', '1', '4', '9', '5', '8', '3', '6', '1', '9', '4', '7', '2']",None,,,,,,,,,0,12,12,12,,9472,,,,,,,,,,,1,,4,"['9', '4', '7', '2']",0,"[2.039963250004803, 2.1821447090042057, 4.098271791997831, 4.182321792002767, 4.517289374998654]",,SAmano2,001,2022-11-16_20h41.46.319,DS_Adapt1L,2022.2.4,59.850195080396254,
7,1,4,8,2,6,3,9,5,8,5,9,1,4,7,2,"['4', '1', '7']","['8', '4', '1', '7']","['2', '8', '4', '1', '7']","['6', '2', '8', '4', '1', '7']","['3', '6', '2', '8', '4', '1', '7']","['9', '3', '6', '2', '8', '4', '1', '7']","['5', '9', '3', '6', '2', '8', '4', '1', '7']","['8', '5', '9', '3', '6', '2', '8', '4', '1', '7']","['5', '8', '5', '9', '3', '6', '2', '8', '4', '1', '7']","['9', '5', '8', '5', '9', '3', '6', '2', '8', '4', '1', '7']","['1', '9', '5', '8', '5', '9', '3', '6', '2', '8', '4', '1', '7']","['4', '1', '9', '5', '8', '5', '9', '3', '6', '2', '8', '4', '1', '7']","['7', '4', '1', '9', '5', '8', '5', '9', '3', '6', '2', '8', '4', '1', '7']","['2', '7', '4', '1', '9', '5', '8', '5', '9', '3', '6', '2', '8', '4', '1', '7']",,,,,,,,,0,13,13,13,,2749,,,,,,,,,,,0,,5,"['2', '7', '4', '9']",0,"[1.9667632920027245, 2.3652077080041636, 2.894046542001888, 3.622666499999468, 3.9327629170002183]",,SAmano2,001,2022-11-16_20h41.46.319,DS_Adapt1L,2022.2.4,59.850195080396254,
,,,,,,,,,,,,,,,,,,,,,,,,,,,,,,,,,,,,,,,,,,,,,,,,,,,,,,,,,,,,4.5,,,,,,,
