word,colour,congruent,corrAns,trials.thisRepN,trials.thisTrialN,trials.thisN,trials.thisIndex,instruText.started,key_resp_2.started,target.started,response.started,response.keys,response.corr,response.rt,text.started,session,participant,date,expName,psychopyVersion,frameRate,
azul,blue,0.0,f,0,0,0,7,17.355639749999682,17.355639749999682,29.05008058399835,29.05008058399835,f,1,2.2862357910053106,,001,Lari2,2022-11-16_14h38.22.633,StroopTask,2022.2.4,60.09276821074064,
XXXX,blue,2.0,f,0,1,1,15,,,31.867003166997165,31.867003166997165,f,1,0.7158134159981273,,001,Lari2,2022-11-16_14h38.22.633,StroopTask,2022.2.4,60.09276821074064,
amarillo,red,0.0,a,0,2,2,6,,,33.10066854199977,33.10066854199977,a,1,0.8479222080059117,,001,Lari2,2022-11-16_14h38.22.633,StroopTask,2022.2.4,60.09276821074064,
rojo,green,0.0,s,0,3,3,4,,,34.466954916999384,34.466954916999384,s,1,0.7052584160046536,,001,Lari2,2022-11-16_14h38.22.633,StroopTask,2022.2.4,60.09276821074064,
rojo,red,1.0,a,0,4,4,0,,,35.70096858400211,35.70096858400211,f,0,0.6110471670035622,,001,Lari2,2022-11-16_14h38.22.633,StroopTask,2022.2.4,60.09276821074064,
XXXXXX,green,2.0,s,0,5,5,21,,,36.833939042000566,36.833939042000566,s,1,0.9934560000037891,,001,Lari2,2022-11-16_14h38.22.633,StroopTask,2022.2.4,60.09276821074064,
verde,green,1.0,s,0,6,6,1,,,38.35056108400022,38.35056108400022,s,1,0.6159970829976373,,001,Lari2,2022-11-16_14h38.22.633,StroopTask,2022.2.4,60.09276821074064,
XXXXX,blue,2.0,f,0,7,7,19,,,39.48386391699751,39.48386391699751,f,1,0.8124994170066202,,001,Lari2,2022-11-16_14h38.22.633,StroopTask,2022.2.4,60.09276821074064,
XXXXX,green,2.0,s,0,8,8,17,,,40.81708591699862,40.81708591699862,s,1,0.6951192090054974,,001,Lari2,2022-11-16_14h38.22.633,StroopTask,2022.2.4,60.09276821074064,
XXXX,green,2.0,s,0,9,9,13,,,42.0342018750016,42.0342018750016,s,1,0.4849274170046556,,001,Lari2,2022-11-16_14h38.22.633,StroopTask,2022.2.4,60.09276821074064,
verde,yellow,0.0,d,0,10,10,5,,,43.05097554199892,43.05097554199892,d,1,0.878713209007401,,001,Lari2,2022-11-16_14h38.22.633,StroopTask,2022.2.4,60.09276821074064,
azul,blue,1.0,f,0,11,11,3,,,44.450796917000844,44.450796917000844,f,1,0.7278659580042586,,001,Lari2,2022-11-16_14h38.22.633,StroopTask,2022.2.4,60.09276821074064,
XXXXX,red,2.0,a,0,12,12,16,,,45.700634667002305,45.700634667002305,a,1,0.7487178750016028,,001,Lari2,2022-11-16_14h38.22.633,StroopTask,2022.2.4,60.09276821074064,
XXXXXX,red,2.0,a,0,13,13,20,,,46.96751000000222,46.96751000000222,a,1,0.4293535000033444,,001,Lari2,2022-11-16_14h38.22.633,StroopTask,2022.2.4,60.09276821074064,
XXX,blue,2.0,f,0,14,14,11,,,47.91776175000268,47.91776175000268,f,1,0.7482034170025145,,001,Lari2,2022-11-16_14h38.22.633,StroopTask,2022.2.4,60.09276821074064,
XXXXXX,yellow,2.0,d,0,15,15,22,,,49.184001000001444,49.184001000001444,d,1,0.8073881250020349,,001,Lari2,2022-11-16_14h38.22.633,StroopTask,2022.2.4,60.09276821074064,
XXXXXX,blue,2.0,f,0,16,16,23,,,50.51729004200024,50.51729004200024,f,1,0.6078901670043706,,001,Lari2,2022-11-16_14h38.22.633,StroopTask,2022.2.4,60.09276821074064,
XXX,yellow,2.0,d,0,17,17,10,,,51.65096354200068,51.65096354200068,d,1,0.7127072500006761,,001,Lari2,2022-11-16_14h38.22.633,StroopTask,2022.2.4,60.09276821074064,
XXXX,red,2.0,a,0,18,18,12,,,52.86760633400263,52.86760633400263,a,1,0.772239666999667,,001,Lari2,2022-11-16_14h38.22.633,StroopTask,2022.2.4,60.09276821074064,
XXXX,yellow,2.0,d,0,19,19,14,,,54.16737308399752,54.16737308399752,d,1,0.7345235000029788,,001,Lari2,2022-11-16_14h38.22.633,StroopTask,2022.2.4,60.09276821074064,
XXX,green,2.0,s,0,20,20,9,,,55.43429716699757,55.43429716699757,s,1,0.6667899169988232,,001,Lari2,2022-11-16_14h38.22.633,StroopTask,2022.2.4,60.09276821074064,
XXXXX,yellow,2.0,d,0,21,21,18,,,56.617716166998434,56.617716166998434,d,1,0.7943848340000841,,001,Lari2,2022-11-16_14h38.22.633,StroopTask,2022.2.4,60.09276821074064,
amarillo,yellow,1.0,d,0,22,22,2,,,57.91748533400096,57.91748533400096,d,1,0.6527963750049821,,001,Lari2,2022-11-16_14h38.22.633,StroopTask,2022.2.4,60.09276821074064,
XXX,red,2.0,a,0,23,23,8,,,59.10175258399977,59.10175258399977,a,1,0.6480676249993849,,001,Lari2,2022-11-16_14h38.22.633,StroopTask,2022.2.4,60.09276821074064,
XXXX,yellow,2.0,d,1,0,24,14,,,60.25169974999881,60.25169974999881,d,1,0.6784798340013367,,001,Lari2,2022-11-16_14h38.22.633,StroopTask,2022.2.4,60.09276821074064,
azul,blue,1.0,f,1,1,25,3,,,61.45120254199719,61.45120254199719,f,1,0.7132012500078417,,001,Lari2,2022-11-16_14h38.22.633,StroopTask,2022.2.4,60.09276821074064,
XXXXXX,green,2.0,s,1,2,26,21,,,62.68455900000117,62.68455900000117,s,1,0.8006144160026452,,001,Lari2,2022-11-16_14h38.22.633,StroopTask,2022.2.4,60.09276821074064,
XXXX,blue,2.0,f,1,3,27,15,,,64.00171529199724,64.00171529199724,f,1,0.7403343749974738,,001,Lari2,2022-11-16_14h38.22.633,StroopTask,2022.2.4,60.09276821074064,
verde,green,1.0,s,1,4,28,1,,,65.2677391249963,65.2677391249963,s,1,0.6988396670058137,,001,Lari2,2022-11-16_14h38.22.633,StroopTask,2022.2.4,60.09276821074064,
rojo,green,0.0,s,1,5,29,4,,,66.48457624999719,66.48457624999719,s,1,0.6716068329988047,,001,Lari2,2022-11-16_14h38.22.633,StroopTask,2022.2.4,60.09276821074064,
XXX,yellow,2.0,d,1,6,30,10,,,67.68454116700013,67.68454116700013,d,1,0.7607304590055719,,001,Lari2,2022-11-16_14h38.22.633,StroopTask,2022.2.4,60.09276821074064,
XXXXX,red,2.0,a,1,7,31,16,,,68.96789162499772,68.96789162499772,a,1,0.5986732079982175,,001,Lari2,2022-11-16_14h38.22.633,StroopTask,2022.2.4,60.09276821074064,
XXXX,red,2.0,a,1,8,32,12,,,70.08471562500199,70.08471562500199,a,1,0.5026101249968633,,001,Lari2,2022-11-16_14h38.22.633,StroopTask,2022.2.4,60.09276821074064,
amarillo,yellow,1.0,d,1,9,33,2,,,71.1180529589983,71.1180529589983,d,1,0.7382566669984953,,001,Lari2,2022-11-16_14h38.22.633,StroopTask,2022.2.4,60.09276821074064,
rojo,red,1.0,a,1,10,34,0,,,72.38485641699663,72.38485641699663,a,1,0.7554792920054751,,001,Lari2,2022-11-16_14h38.22.633,StroopTask,2022.2.4,60.09276821074064,
XXXX,green,2.0,s,1,11,35,13,,,73.6679312089982,73.6679312089982,s,1,0.7503427920019021,,001,Lari2,2022-11-16_14h38.22.633,StroopTask,2022.2.4,60.09276821074064,
azul,blue,0.0,f,1,12,36,7,,,74.93479645899788,74.93479645899788,f,1,0.7399841250080499,,001,Lari2,2022-11-16_14h38.22.633,StroopTask,2022.2.4,60.09276821074064,
XXXXX,blue,2.0,f,1,13,37,19,,,76.20142008399853,76.20142008399853,f,1,0.5714741660049185,,001,Lari2,2022-11-16_14h38.22.633,StroopTask,2022.2.4,60.09276821074064,
XXX,green,2.0,s,1,14,38,9,,,77.30135104199871,77.30135104199871,s,1,0.7830947920083418,,001,Lari2,2022-11-16_14h38.22.633,StroopTask,2022.2.4,60.09276821074064,
XXXXX,yellow,2.0,d,1,15,39,18,,,78.60152845900302,78.60152845900302,d,1,0.6798486670086277,,001,Lari2,2022-11-16_14h38.22.633,StroopTask,2022.2.4,60.09276821074064,
XXX,blue,2.0,f,1,16,40,11,,,79.80147579200275,79.80147579200275,f,1,0.6810666250021313,,001,Lari2,2022-11-16_14h38.22.633,StroopTask,2022.2.4,60.09276821074064,
XXXXXX,red,2.0,a,1,17,41,20,,,81.00166408399673,81.00166408399673,a,1,0.762283625001146,,001,Lari2,2022-11-16_14h38.22.633,StroopTask,2022.2.4,60.09276821074064,
verde,yellow,0.0,d,1,18,42,5,,,82.28483799999958,82.28483799999958,d,1,0.7460411670035683,,001,Lari2,2022-11-16_14h38.22.633,StroopTask,2022.2.4,60.09276821074064,
XXXXXX,blue,2.0,f,1,19,43,23,,,83.55190562499774,83.55190562499774,f,1,0.6764626660078648,,001,Lari2,2022-11-16_14h38.22.633,StroopTask,2022.2.4,60.09276821074064,
XXX,red,2.0,a,1,20,44,8,,,84.75152779200289,84.75152779200289,a,1,0.696399125001335,,001,Lari2,2022-11-16_14h38.22.633,StroopTask,2022.2.4,60.09276821074064,
XXXXXX,yellow,2.0,d,1,21,45,22,,,85.96871329200076,85.96871329200076,d,1,0.689444083996932,,001,Lari2,2022-11-16_14h38.22.633,StroopTask,2022.2.4,60.09276821074064,
amarillo,red,0.0,a,1,22,46,6,,,87.18494966699654,87.18494966699654,a,1,0.7829332500041346,,001,Lari2,2022-11-16_14h38.22.633,StroopTask,2022.2.4,60.09276821074064,
XXXXX,green,2.0,s,1,23,47,17,,,88.48516833400208,88.48516833400208,s,1,0.7542732500005513,,001,Lari2,2022-11-16_14h38.22.633,StroopTask,2022.2.4,60.09276821074064,
,,,,,,,,,,,,,,,89.29472783399979,,,,,,,
